instruction_text;thisN;thisTrialN;thisRepN;prac_attention_resp.keys;prac_attention_resp.rt;prac_attention_resp.duration;exp_atttention_resp.keys;exp_pause_resp.keys;exp_atttention_resp.rt;exp_atttention_resp.duration;exp_pause_resp.rt;exp_pause_resp.duration;instruction_trial.thisRepN;instruction_trial.thisTrialN;instruction_trial.thisN;instruction_trial.thisIndex;practice_trials.thisRepN;practice_trials.thisTrialN;practice_trials.thisN;practice_trials.thisIndex;experiment_trials.thisRepN;experiment_trials.thisTrialN;experiment_trials.thisN;experiment_trials.thisIndex;thisRow.t;notes;piloting;assigned_ls_group;slider_informed_consent.response;Practice_clip_name;Practice_video_used;Practice_audio_used;Practice_modality;Practice_subtitles;Practice_attention_check;Practice_all_cut_rts;practice_trials.prac_attention_resp.keys;Practice_correct_key_required;practice_trials.prac_attention_resp.rt;practice_trials.prac_attention_resp.duration;video_used;audio_used;condition_modality;all_cut_rts;experiment_trials.exp_atttention_resp.keys;experiment_trials.exp_pause_resp.keys;correct_key_required;experiment_trials.exp_atttention_resp.rt;experiment_trials.exp_atttention_resp.duration;experiment_trials.exp_pause_resp.rt;experiment_trials.exp_pause_resp.duration;participant;session;date;expName;expVersion;psychopyVersion;frameRate;expStart
Einverständniserklärung;;;;;;;;;;;;;;;;;;;;;;;;;;;;;;;;;;;;;;;;;;;;;;;;;;;;;;;;;;;
;;;;;;;;;;;;;;;;;;;;;;;;;;;;;;;;;;;;;;;;;;;;;;;;;;;;201;B;2026-03-28_21h19.11.611;exp_sofc_final;;02.01.2026;6.004.412.044.809.740;2026-03-28 21h19.13.703813 +0100
;0;0;0;None;;;;;;;;;;;;;0;0;0;0;;;;;4.605.997.569.998.720;;;;;clip_wurst_09_sub_1;clips/clip_wurst_09_sub_1.mp4;audios/clip_wurst_09_sub_1.mp3;audiovisual;sub;False;[5.98018219973892];None;;;;;;;;;;;;;;;201;B;2026-03-28_21h19.11.611;exp_sofc_final;;02.01.2026;6.004.412.044.809.740;2026-03-28 21h19.13.703813 +0100
;1;0;1;None;;;;;;;;;;;;;1;0;1;0;;;;;5.772.028.620.028.860;;;;;clip_weißt_09_sub_1;clips/clip_weißt_09_sub_1.mp4;audios/silence.mp3;visual;sub;False;[6.204817400313914];None;;;;;;;;;;;;;;;201;B;2026-03-28_21h19.11.611;exp_sofc_final;;02.01.2026;6.004.412.044.809.740;2026-03-28 21h19.13.703813 +0100
;2;0;2;1;58.670.882.997.103.000;None;;;;;;;;;;;2;0;2;0;;;;;6.766.166.790.015.990;;;;;clip_weißt_21_nosub_0;clips/clip_weißt_21_nosub_0.mp4;audios/silence.mp3;visual;nosub;True;[];1;1;58.670.882.997.103.000;None;;;;;;;;;;;;201;B;2026-03-28_21h19.11.611;exp_sofc_final;;02.01.2026;6.004.412.044.809.740;2026-03-28 21h19.13.703813 +0100
;3;0;3;None;;;;;;;;;;;;;3;0;3;0;;;;;8.472.936.450.038.100;;;;;clip_weißt_05_sub_0;clips/clip_weißt_05_sub_0.mp4;audios/clip_weißt_05_sub_0.mp3;audiovisual;sub;False;[];None;;;;;;;;;;;;;;;201;B;2026-03-28_21h19.11.611;exp_sofc_final;;02.01.2026;6.004.412.044.809.740;2026-03-28 21h19.13.703813 +0100
;4;0;4;None;;;;;;;;;;;;;4;0;4;0;;;;;9.532.003.050.018.100;;;;;clip_weißt_10_nosub_1;clips/clip_weißt_10_nosub_1.mp4;audios/clip_weißt_10_nosub_1.mp3;audiovisual;nosub;False;[5.5906803999096155];None;;;;;;;;;;;;;;;201;B;2026-03-28_21h19.11.611;exp_sofc_final;;02.01.2026;6.004.412.044.809.740;2026-03-28 21h19.13.703813 +0100
;5;0;5;2;14.067.257.199.902.000;None;;;;;;;;;;;5;0;5;0;;;;;10.720.831.960.020.500;;;;;clip_hund_02_sub_1;clips/clip_hund_02_sub_1.mp4;audios/clip_hund_02_sub_1.mp3;audiovisual;sub;True;[9.519748699851334];2;1;14.067.257.199.902.000;None;;;;;;;;;;;;201;B;2026-03-28_21h19.11.611;exp_sofc_final;;02.01.2026;6.004.412.044.809.740;2026-03-28 21h19.13.703813 +0100
;6;0;6;None;;;;;;;;;;;;;6;0;6;0;;;;;13.230.058.490.019.200;;;;;clip_hund_31_sub_0;clips/clip_hund_31_sub_0.mp4;audios/silence.mp3;visual;sub;False;[];None;;;;;;;;;;;;;;;201;B;2026-03-28_21h19.11.611;exp_sofc_final;;02.01.2026;6.004.412.044.809.740;2026-03-28 21h19.13.703813 +0100
;7;0;7;2;3.586.075.899.656.860;None;;;;;;;;;;;7;0;7;0;;;;;14.153.714.310.005.300;;;;;clip_hund_25_sub_1;clips/clip_hund_25_sub_1.mp4;audios/silence.mp3;visual;sub;True;[6.681123099755496];2;2;3.586.075.899.656.860;None;;;;;;;;;;;;201;B;2026-03-28_21h19.11.611;exp_sofc_final;;02.01.2026;6.004.412.044.809.740;2026-03-28 21h19.13.703813 +0100
;8;0;8;None;;;;;;;;;;;;;8;0;8;0;;;;;15.442.821.220.029.100;;;;;clip_hund_06_nosub_0;clips/clip_hund_06_nosub_0.mp4;audios/clip_hund_06_nosub_0.mp3;audiovisual;nosub;False;[];None;;;;;;;;;;;;;;;201;B;2026-03-28_21h19.11.611;exp_sofc_final;;02.01.2026;6.004.412.044.809.740;2026-03-28 21h19.13.703813 +0100
;9;0;9;4;5.049.292.400.013.650;None;;;;;;;;;;;9;0;9;0;;;;;1.661.061.630.002.220;;;;;clip_hund_26_sub_1;clips/clip_hund_26_sub_1.mp4;audios/silence.mp3;visual;sub;True;[];4;4;5.049.292.400.013.650;None;;;;;;;;;;;;201;B;2026-03-28_21h19.11.611;exp_sofc_final;;02.01.2026;6.004.412.044.809.740;2026-03-28 21h19.13.703813 +0100
;10;0;10;None;;;;;;;;;;;;;10;0;10;0;;;;;1.815.273.959.003.380;;;;;clip_weißt_18_nosub_1;clips/clip_weißt_18_nosub_1.mp4;audios/silence.mp3;visual;nosub;False;[6.9388267998583615];None;;;;;;;;;;;;;;;201;B;2026-03-28_21h19.11.611;exp_sofc_final;;02.01.2026;6.004.412.044.809.740;2026-03-28 21h19.13.703813 +0100
;11;0;11;None;;;;;;;;;;;;;11;0;11;0;;;;;19.437.207.920.011.100;;;;;clip_hund_28_nosub_0;clips/clip_hund_28_nosub_0.mp4;audios/clip_hund_28_nosub_0.mp3;audiovisual;nosub;False;[];None;;;;;;;;;;;;;;;201;B;2026-03-28_21h19.11.611;exp_sofc_final;;02.01.2026;6.004.412.044.809.740;2026-03-28 21h19.13.703813 +0100
;;;;;;;;;;;;;;;;;;;;;;;;;;;;;;;;;;;;;;;;;;;;;;;;;;;;201;B;2026-03-28_21h19.11.611;exp_sofc_final;;02.01.2026;6.004.412.044.809.740;2026-03-28 21h19.13.703813 +0100
;0;0;0;;;;None;None;;;;;;;;;;;;;0;0;0;0;20.876.383.770.024.400;;;;;;;;;;;;;;;;clips/clip_lied_12_sub_0.mp4;audios/clip_lied_12_sub_0.mp3;audiovisual;[];None;None;;;;;;201;B;2026-03-28_21h19.11.611;exp_sofc_final;;02.01.2026;6.004.412.044.809.740;2026-03-28 21h19.13.703813 +0100
;1;0;1;;;;None;None;;;;;;;;;;;;;1;0;1;0;21.858.354.080.002.700;;;;;;;;;;;;;;;;clips/clip_hund_22_sub_1.mp4;audios/silence.mp3;visual;[8.58506410010159];None;None;;;;;;201;B;2026-03-28_21h19.11.611;exp_sofc_final;;02.01.2026;6.004.412.044.809.740;2026-03-28 21h19.13.703813 +0100
;2;0;2;;;;None;None;;;;;;;;;;;;;2;0;2;0;22.951.299.290.033.000;;;;;;;;;;;;;;;;clips/clip_lied_16_sub_2.mp4;audios/silence.mp3;visual;[4.0137951001524925, 6.442451700102538];None;None;;;;;;201;B;2026-03-28_21h19.11.611;exp_sofc_final;;02.01.2026;6.004.412.044.809.740;2026-03-28 21h19.13.703813 +0100
;3;0;3;;;;None;None;;;;;;;;;;;;;3;0;3;0;24.103.004.750.004.000;;;;;;;;;;;;;;;;clips/clip_weißt_11_nosub_0.mp4;audios/silence.mp3;visual;[];None;None;;;;;;201;B;2026-03-28_21h19.11.611;exp_sofc_final;;02.01.2026;6.004.412.044.809.740;2026-03-28 21h19.13.703813 +0100
;4;0;4;;;;1;None;36.544.389.999.471.600;None;;;;;;;;;;;4;0;4;0;25.196.105.730.021.300;;;;;;;;;;;;;;;;clips/clip_claude_27_sub_0.mp4;audios/clip_claude_27_sub_0.mp3;audiovisual;[];1;None;1;36.544.389.999.471.600;None;;;201;B;2026-03-28_21h19.11.611;exp_sofc_final;;02.01.2026;6.004.412.044.809.740;2026-03-28 21h19.13.703813 +0100
;5;0;5;;;;None;None;;;;;;;;;;;;;5;0;5;0;2.685.708.225.001.580;;;;;;;;;;;;;;;;clips/clip_hund_24_nosub_1.mp4;audios/silence.mp3;visual;[8.30911390017718];None;None;;;;;;201;B;2026-03-28_21h19.11.611;exp_sofc_final;;02.01.2026;6.004.412.044.809.740;2026-03-28 21h19.13.703813 +0100
;6;0;6;;;;None;None;;;;;;;;;;;;;6;0;6;0;2.814.279.660.000.460;;;;;;;;;;;;;;;;clips/clip_hund_05_sub_0.mp4;audios/silence.mp3;visual;[4.1224968996830285];None;None;;;;;;201;B;2026-03-28_21h19.11.611;exp_sofc_final;;02.01.2026;6.004.412.044.809.740;2026-03-28 21h19.13.703813 +0100
;7;0;7;;;;None;None;;;;;;;;;;;;;7;0;7;0;293.284.572.200.384;;;;;;;;;;;;;;;;clips/clip_lied_01_nosub_1.mp4;audios/silence.mp3;visual;[4.804320099763572];None;None;;;;;;201;B;2026-03-28_21h19.11.611;exp_sofc_final;;02.01.2026;6.004.412.044.809.740;2026-03-28 21h19.13.703813 +0100
;8;0;8;;;;None;None;;;;;;;;;;;;;8;0;8;0;3.042.391.386.004.160;;;;;;;;;;;;;;;;clips/clip_wurst_31_nosub_1.mp4;audios/clip_wurst_31_nosub_1.mp3;audiovisual;[];None;None;;;;;;201;B;2026-03-28_21h19.11.611;exp_sofc_final;;02.01.2026;6.004.412.044.809.740;2026-03-28 21h19.13.703813 +0100
;9;0;9;;;;None;None;;;;;;;;;;;;;9;0;9;0;3.161.348.956.003.780;;;;;;;;;;;;;;;;clips/clip_weißt_02_sub_0.mp4;audios/silence.mp3;visual;[];None;None;;;;;;201;B;2026-03-28_21h19.11.611;exp_sofc_final;;02.01.2026;6.004.412.044.809.740;2026-03-28 21h19.13.703813 +0100
;10;0;10;;;;4;None;56.954.912.999.644.800;None;;;;;;;;;;;10;0;10;0;32.705.044.460.017.200;;;;;;;;;;;;;;;;clips/clip_holo_11_sub_2.mp4;audios/silence.mp3;visual;[5.679102100431919, 9.22595710027963];4;None;4;56.954.912.999.644.800;None;;;201;B;2026-03-28_21h19.11.611;exp_sofc_final;;02.01.2026;6.004.412.044.809.740;2026-03-28 21h19.13.703813 +0100
;11;0;11;;;;None;None;;;;;;;;;;;;;11;0;11;0;34.333.932.780.008.700;;;;;;;;;;;;;;;;clips/clip_lied_08_sub_1.mp4;audios/clip_lied_08_sub_1.mp3;audiovisual;[7.4897248996421695];None;None;;;;;;201;B;2026-03-28_21h19.11.611;exp_sofc_final;;02.01.2026;6.004.412.044.809.740;2026-03-28 21h19.13.703813 +0100
;12;0;12;;;;None;None;;;;;;;;;;;;;12;0;12;0;35.316.964.290.011.600;;;;;;;;;;;;;;;;clips/clip_claude_08_nosub_0.mp4;audios/silence.mp3;visual;[];None;None;;;;;;201;B;2026-03-28_21h19.11.611;exp_sofc_final;;02.01.2026;6.004.412.044.809.740;2026-03-28 21h19.13.703813 +0100
;13;0;13;;;;None;None;;;;;;;;;;;;;13;0;13;0;3.637.541.625.001.460;;;;;;;;;;;;;;;;clips/clip_hund_13_nosub_1.mp4;audios/clip_hund_13_nosub_1.mp3;audiovisual;[5.964497799985111];None;None;;;;;;201;B;2026-03-28_21h19.11.611;exp_sofc_final;;02.01.2026;6.004.412.044.809.740;2026-03-28 21h19.13.703813 +0100
;14;0;14;;;;None;None;;;;;;;;;;;;;14;0;14;0;37.681.574.250.012.600;;;;;;;;;;;;;;;;clips/clip_hund_16_nosub_1.mp4;audios/silence.mp3;visual;[];None;None;;;;;;201;B;2026-03-28_21h19.11.611;exp_sofc_final;;02.01.2026;6.004.412.044.809.740;2026-03-28 21h19.13.703813 +0100
;15;0;15;;;;None;None;;;;;;;;;;;;;15;0;15;0;38.805.619.500.018.600;;;;;;;;;;;;;;;;clips/clip_wurst_34_nosub_2.mp4;audios/silence.mp3;visual;[4.1906543001532555, 6.092000000178814];None;None;;;;;;201;B;2026-03-28_21h19.11.611;exp_sofc_final;;02.01.2026;6.004.412.044.809.740;2026-03-28 21h19.13.703813 +0100
;16;0;16;;;;None;None;;;;;;;;;;;;;16;0;16;0;39.740.535.890.031.600;;;;;;;;;;;;;;;;clips/clip_weißt_19_sub_1.mp4;audios/clip_weißt_19_sub_1.mp3;audiovisual;[];None;None;;;;;;201;B;2026-03-28_21h19.11.611;exp_sofc_final;;02.01.2026;6.004.412.044.809.740;2026-03-28 21h19.13.703813 +0100
;17;0;17;;;;None;None;;;;;;;;;;;;;17;0;17;0;4.082.945.742.001.750;;;;;;;;;;;;;;;;clips/clip_herz_16_sub_0.mp4;audios/silence.mp3;visual;[];None;None;;;;;;201;B;2026-03-28_21h19.11.611;exp_sofc_final;;02.01.2026;6.004.412.044.809.740;2026-03-28 21h19.13.703813 +0100
;18;0;18;;;;None;None;;;;;;;;;;;;;18;0;18;0;4.182.451.486.000.790;;;;;;;;;;;;;;;;clips/clip_hund_34_nosub_1.mp4;audios/clip_hund_34_nosub_1.mp3;audiovisual;[];None;None;;;;;;201;B;2026-03-28_21h19.11.611;exp_sofc_final;;02.01.2026;6.004.412.044.809.740;2026-03-28 21h19.13.703813 +0100
;19;0;19;;;;None;None;;;;;;;;;;;;;19;0;19;0;42.965.797.790.000.200;;;;;;;;;;;;;;;;clips/clip_wurst_29_sub_1.mp4;audios/clip_wurst_29_sub_1.mp3;audiovisual;[];None;None;;;;;;201;B;2026-03-28_21h19.11.611;exp_sofc_final;;02.01.2026;6.004.412.044.809.740;2026-03-28 21h19.13.703813 +0100
;20;0;20;;;;None;None;;;;;;;;;;;;;20;0;20;0;44.253.215.840.039.700;;;;;;;;;;;;;;;;clips/clip_claude_06_sub_1.mp4;audios/silence.mp3;visual;[4.228139500133693];None;None;;;;;;201;B;2026-03-28_21h19.11.611;exp_sofc_final;;02.01.2026;6.004.412.044.809.740;2026-03-28 21h19.13.703813 +0100
;21;0;21;;;;None;None;;;;;;;;;;;;;21;0;21;0;45.600.607.200.013.400;;;;;;;;;;;;;;;;clips/clip_herz_05_sub_0.mp4;audios/clip_herz_05_sub_0.mp3;audiovisual;[6.042014199774712, 7.264541300013661];None;None;;;;;;201;B;2026-03-28_21h19.11.611;exp_sofc_final;;02.01.2026;6.004.412.044.809.740;2026-03-28 21h19.13.703813 +0100
;22;0;22;;;;None;None;;;;;;;;;;;;;22;0;22;0;46.724.792.790.040.300;;;;;;;;;;;;;;;;clips/clip_lied_06_nosub_1.mp4;audios/clip_lied_06_nosub_1.mp3;audiovisual;[];None;None;;;;;;201;B;2026-03-28_21h19.11.611;exp_sofc_final;;02.01.2026;6.004.412.044.809.740;2026-03-28 21h19.13.703813 +0100
;23;0;23;;;;None;None;;;;;;;;;;;;;23;0;23;0;48.076.397.040.020.600;;;;;;;;;;;;;;;;clips/clip_claude_17_nosub_1.mp4;audios/clip_claude_17_nosub_1.mp3;audiovisual;[10.40504840016365];None;None;;;;;;201;B;2026-03-28_21h19.11.611;exp_sofc_final;;02.01.2026;6.004.412.044.809.740;2026-03-28 21h19.13.703813 +0100
;24;0;24;;;;None;None;;;;;;;;;;;;;24;0;24;0;49.314.429.179.998.100;;;;;;;;;;;;;;;;clips/clip_wurst_22_nosub_0.mp4;audios/silence.mp3;visual;[];None;None;;;;;;201;B;2026-03-28_21h19.11.611;exp_sofc_final;;02.01.2026;6.004.412.044.809.740;2026-03-28 21h19.13.703813 +0100
;25;0;25;;;;4;None;19.454.643.600.154.600;None;;;;;;;;;;;25;0;25;0;5.057.341.482.001.350;;;;;;;;;;;;;;;;clips/clip_wurst_12_sub_0.mp4;audios/silence.mp3;visual;[];4;None;4;19.454.643.600.154.600;None;;;201;B;2026-03-28_21h19.11.611;exp_sofc_final;;02.01.2026;6.004.412.044.809.740;2026-03-28 21h19.13.703813 +0100
;26;0;26;;;;None;None;;;;;;;;;;;;;26;0;26;0;5.347.740.176.999.940;;;;;;;;;;;;;;;;clips/clip_weißt_20_nosub_1.mp4;audios/silence.mp3;visual;[7.876840199809521];None;None;;;;;;201;B;2026-03-28_21h19.11.611;exp_sofc_final;;02.01.2026;6.004.412.044.809.740;2026-03-28 21h19.13.703813 +0100
;27;0;27;;;;None;None;;;;;;;;;;;;;27;0;27;0;5.453.910.052.003.330;;;;;;;;;;;;;;;;clips/clip_weißt_29_sub_1.mp4;audios/clip_weißt_29_sub_1.mp3;audiovisual;[6.7427250999026];None;None;;;;;;201;B;2026-03-28_21h19.11.611;exp_sofc_final;;02.01.2026;6.004.412.044.809.740;2026-03-28 21h19.13.703813 +0100
;28;0;28;;;;None;None;;;;;;;;;;;;;28;0;28;0;5.578.316.301.000.300;;;;;;;;;;;;;;;;clips/clip_claude_20_nosub_1.mp4;audios/silence.mp3;visual;[6.561294199898839];None;None;;;;;;201;B;2026-03-28_21h19.11.611;exp_sofc_final;;02.01.2026;6.004.412.044.809.740;2026-03-28 21h19.13.703813 +0100
;29;0;29;;;;None;None;;;;;;;;;;;;;29;0;29;0;5.707.781.031.001.350;;;;;;;;;;;;;;;;clips/clip_claude_04_nosub_2.mp4;audios/silence.mp3;visual;[8.609077800065279];None;None;;;;;;201;B;2026-03-28_21h19.11.611;exp_sofc_final;;02.01.2026;6.004.412.044.809.740;2026-03-28 21h19.13.703813 +0100
;30;0;30;;;;1;None;5.450.579.099.822.780;None;;;;;;;;;;;30;0;30;0;5.807.060.100.003.140;;;;;;;;;;;;;;;;clips/clip_weißt_30_nosub_2.mp4;audios/silence.mp3;visual;[3.358305400237441, 11.973560400307178];1;None;1;5.450.579.099.822.780;None;;;201;B;2026-03-28_21h19.11.611;exp_sofc_final;;02.01.2026;6.004.412.044.809.740;2026-03-28 21h19.13.703813 +0100
;31;0;31;;;;None;None;;;;;;;;;;;;;31;0;31;0;5.991.137.118.004.260;;;;;;;;;;;;;;;;clips/clip_lied_09_nosub_1.mp4;audios/silence.mp3;visual;[];None;None;;;;;;201;B;2026-03-28_21h19.11.611;exp_sofc_final;;02.01.2026;6.004.412.044.809.740;2026-03-28 21h19.13.703813 +0100
;32;0;32;;;;2;None;4.640.394.499.991.080;None;;;;;;;;;;;32;0;32;0;6.104.339.326.000.770;;;;;;;;;;;;;;;;clips/clip_herz_13_sub_0.mp4;audios/clip_herz_13_sub_0.mp3;audiovisual;[8.167558399960399];2;None;2;4.640.394.499.991.080;None;;;201;B;2026-03-28_21h19.11.611;exp_sofc_final;;02.01.2026;6.004.412.044.809.740;2026-03-28 21h19.13.703813 +0100
;33;0;33;;;;None;None;;;;;;;;;;;;;33;0;33;0;6.273.125.560.004.260;;;;;;;;;;;;;;;;clips/clip_weißt_08_sub_0.mp4;audios/clip_weißt_08_sub_0.mp3;audiovisual;[8.114057600032538];None;None;;;;;;201;B;2026-03-28_21h19.11.611;exp_sofc_final;;02.01.2026;6.004.412.044.809.740;2026-03-28 21h19.13.703813 +0100
;34;0;34;;;;4;None;3.002.952.799.666.670;None;;;;;;;;;;;34;0;34;0;6.383.625.682.001.000;;;;;;;;;;;;;;;;clips/clip_lied_19_nosub_1.mp4;audios/clip_lied_19_nosub_1.mp3;audiovisual;[5.252119199838489];4;None;4;3.002.952.799.666.670;None;;;201;B;2026-03-28_21h19.11.611;exp_sofc_final;;02.01.2026;6.004.412.044.809.740;2026-03-28 21h19.13.703813 +0100
;35;0;35;;;;None;None;;;;;;;;;;;;;35;0;35;0;6.530.811.646.999.790;;;;;;;;;;;;;;;;clips/clip_wurst_14_nosub_1.mp4;audios/silence.mp3;visual;[7.7643070998601615];None;None;;;;;;201;B;2026-03-28_21h19.11.611;exp_sofc_final;;02.01.2026;6.004.412.044.809.740;2026-03-28 21h19.13.703813 +0100
;36;0;36;;;;None;None;;;;;;;;;;;;;36;0;36;0;6.639.060.321.003.190;;;;;;;;;;;;;;;;clips/clip_herz_08_sub_0.mp4;audios/silence.mp3;visual;[5.351736499927938, 9.465082299895585];None;None;;;;;;201;B;2026-03-28_21h19.11.611;exp_sofc_final;;02.01.2026;6.004.412.044.809.740;2026-03-28 21h19.13.703813 +0100
;37;0;37;;;;None;None;;;;;;;;;;;;;37;0;37;0;6.767.012.791.000.300;;;;;;;;;;;;;;;;clips/clip_wurst_20_sub_0.mp4;audios/silence.mp3;visual;[];None;None;;;;;;201;B;2026-03-28_21h19.11.611;exp_sofc_final;;02.01.2026;6.004.412.044.809.740;2026-03-28 21h19.13.703813 +0100
;38;0;38;;;;None;None;;;;;;;;;;;;;38;0;38;0;6.876.857.696.003.280;;;;;;;;;;;;;;;;clips/clip_wurst_17_sub_0.mp4;audios/clip_wurst_17_sub_0.mp3;audiovisual;[];None;None;;;;;;201;B;2026-03-28_21h19.11.611;exp_sofc_final;;02.01.2026;6.004.412.044.809.740;2026-03-28 21h19.13.703813 +0100
;39;0;39;;;;3;None;6.019.453.499.931.840;None;;;;;;;;;;;39;0;39;0;6.966.921.575.004.230;;;;;;;;;;;;;;;;clips/clip_claude_21_nosub_1.mp4;audios/clip_claude_21_nosub_1.mp3;audiovisual;[9.799806700088084];3;None;3;6.019.453.499.931.840;None;;;201;B;2026-03-28_21h19.11.611;exp_sofc_final;;02.01.2026;6.004.412.044.809.740;2026-03-28 21h19.13.703813 +0100
;40;0;40;;;;1;None;5.023.384.700.063.610;None;;;;;;;;;;;40;0;40;0;7.159.754.348.001.440;;;;;;;;;;;;;;;;clips/clip_lied_04_sub_0.mp4;audios/clip_lied_04_sub_0.mp3;audiovisual;[];1;None;1;5.023.384.700.063.610;None;;;201;B;2026-03-28_21h19.11.611;exp_sofc_final;;02.01.2026;6.004.412.044.809.740;2026-03-28 21h19.13.703813 +0100
;41;0;41;;;;None;None;;;;;;;;;;;;;41;0;41;0;732.886.465.900.112;;;;;;;;;;;;;;;;clips/clip_holo_07_sub_0.mp4;audios/silence.mp3;visual;[];None;None;;;;;;201;B;2026-03-28_21h19.11.611;exp_sofc_final;;02.01.2026;6.004.412.044.809.740;2026-03-28 21h19.13.703813 +0100
;42;0;42;;;;None;None;;;;;;;;;;;;;42;0;42;0;7.433.247.379.004.020;;;;;;;;;;;;;;;;clips/clip_dampf_06_sub_2.mp4;audios/silence.mp3;visual;[];None;None;;;;;;201;B;2026-03-28_21h19.11.611;exp_sofc_final;;02.01.2026;6.004.412.044.809.740;2026-03-28 21h19.13.703813 +0100
;43;0;43;;;;None;None;;;;;;;;;;;;;43;0;43;0;7.529.553.169.002.750;;;;;;;;;;;;;;;;clips/clip_claude_19_sub_0.mp4;audios/clip_claude_19_sub_0.mp3;audiovisual;[];None;None;;;;;;201;B;2026-03-28_21h19.11.611;exp_sofc_final;;02.01.2026;6.004.412.044.809.740;2026-03-28 21h19.13.703813 +0100
;44;0;44;;;;None;None;;;;;;;;;;;;;44;0;44;0;7.643.464.008.001.610;;;;;;;;;;;;;;;;clips/clip_hund_15_sub_1.mp4;audios/clip_hund_15_sub_1.mp3;audiovisual;[4.851884699892253];None;None;;;;;;201;B;2026-03-28_21h19.11.611;exp_sofc_final;;02.01.2026;6.004.412.044.809.740;2026-03-28 21h19.13.703813 +0100
;45;0;45;;;;None;None;;;;;;;;;;;;;45;0;45;0;7.756.173.136.001.450;;;;;;;;;;;;;;;;clips/clip_weißt_04_nosub_0.mp4;audios/silence.mp3;visual;[];None;None;;;;;;201;B;2026-03-28_21h19.11.611;exp_sofc_final;;02.01.2026;6.004.412.044.809.740;2026-03-28 21h19.13.703813 +0100
;46;0;46;;;;None;None;;;;;;;;;;;;;46;0;46;0;7.866.741.706.002.500;;;;;;;;;;;;;;;;clips/clip_claude_01_nosub_2.mp4;audios/clip_claude_01_nosub_2.mp3;audiovisual;[6.732047500088811, 8.493676600046456];None;None;;;;;;201;B;2026-03-28_21h19.11.611;exp_sofc_final;;02.01.2026;6.004.412.044.809.740;2026-03-28 21h19.13.703813 +0100
;47;0;47;;;;None;None;;;;;;;;;;;;;47;0;47;0;7.984.957.376.001.400;;;;;;;;;;;;;;;;clips/clip_hund_04_nosub_0.mp4;audios/clip_hund_04_nosub_0.mp3;audiovisual;[];None;None;;;;;;201;B;2026-03-28_21h19.11.611;exp_sofc_final;;02.01.2026;6.004.412.044.809.740;2026-03-28 21h19.13.703813 +0100
;48;0;48;;;;None;None;;;;;;;;;;;;;48;0;48;0;8.088.635.123.004.200;;;;;;;;;;;;;;;;clips/clip_holo_05_nosub_2.mp4;audios/silence.mp3;visual;[7.101114899851382];None;None;;;;;;201;B;2026-03-28_21h19.11.611;exp_sofc_final;;02.01.2026;6.004.412.044.809.740;2026-03-28 21h19.13.703813 +0100
;49;0;49;;;;None;None;;;;;;;;;;;;;49;0;49;0;8.188.761.369.003.910;;;;;;;;;;;;;;;;clips/clip_hund_03_nosub_1.mp4;audios/silence.mp3;visual;[6.548683399800211];None;None;;;;;;201;B;2026-03-28_21h19.11.611;exp_sofc_final;;02.01.2026;6.004.412.044.809.740;2026-03-28 21h19.13.703813 +0100
;50;0;50;;;;None;None;;;;;;;;;;;;;50;0;50;0;8.315.899.987.001.900;;;;;;;;;;;;;;;;clips/clip_lied_14_nosub_0.mp4;audios/silence.mp3;visual;[];None;None;;;;;;201;B;2026-03-28_21h19.11.611;exp_sofc_final;;02.01.2026;6.004.412.044.809.740;2026-03-28 21h19.13.703813 +0100
;51;0;51;;;;None;None;;;;;;;;;;;;;51;0;51;0;8.421.567.786.000.660;;;;;;;;;;;;;;;;clips/clip_wurst_36_sub_0.mp4;audios/silence.mp3;visual;[];None;None;;;;;;201;B;2026-03-28_21h19.11.611;exp_sofc_final;;02.01.2026;6.004.412.044.809.740;2026-03-28 21h19.13.703813 +0100
;52;0;52;;;;None;None;;;;;;;;;;;;;52;0;52;0;8.529.078.453.001.560;;;;;;;;;;;;;;;;clips/clip_wurst_01_nosub_0.mp4;audios/clip_wurst_01_nosub_0.mp3;audiovisual;[];None;None;;;;;;201;B;2026-03-28_21h19.11.611;exp_sofc_final;;02.01.2026;6.004.412.044.809.740;2026-03-28 21h19.13.703813 +0100
;53;0;53;;;;2;None;6.586.541.899.945.580;None;;;;;;;;;;;53;0;53;0;8.637.169.391.000.640;;;;;;;;;;;;;;;;clips/clip_claude_23_sub_0.mp4;audios/clip_claude_23_sub_0.mp3;audiovisual;[];2;None;4;6.586.541.899.945.580;None;;;201;B;2026-03-28_21h19.11.611;exp_sofc_final;;02.01.2026;6.004.412.044.809.740;2026-03-28 21h19.13.703813 +0100
;54;0;54;;;;None;None;;;;;;;;;;;;;54;0;54;0;8.834.295.528.000.220;;;;;;;;;;;;;;;;clips/clip_weißt_03_sub_0.mp4;audios/clip_weißt_03_sub_0.mp3;audiovisual;[];None;None;;;;;;201;B;2026-03-28_21h19.11.611;exp_sofc_final;;02.01.2026;6.004.412.044.809.740;2026-03-28 21h19.13.703813 +0100
;55;0;55;;;;2;None;39.377.379.999.496.000;None;;;;;;;;;;;55;0;55;0;896.254.773.600.027;;;;;;;;;;;;;;;;clips/clip_dampf_04_nosub_1.mp4;audios/silence.mp3;visual;[5.20936039974913];2;None;2;39.377.379.999.496.000;None;;;201;B;2026-03-28_21h19.11.611;exp_sofc_final;;02.01.2026;6.004.412.044.809.740;2026-03-28 21h19.13.703813 +0100
;56;0;56;;;;None;None;;;;;;;;;;;;;56;0;56;0;9.107.438.805.000.850;;;;;;;;;;;;;;;;clips/clip_weißt_07_sub_1.mp4;audios/silence.mp3;visual;[3.9482621997594833];None;None;;;;;;201;B;2026-03-28_21h19.11.611;exp_sofc_final;;02.01.2026;6.004.412.044.809.740;2026-03-28 21h19.13.703813 +0100
;57;0;57;;;;None;None;;;;;;;;;;;;;57;0;57;0;9.212.360.734.003.590;;;;;;;;;;;;;;;;clips/clip_herz_06_nosub_2.mp4;audios/silence.mp3;visual;[4.830234999768436, 7.93855689978227];None;None;;;;;;201;B;2026-03-28_21h19.11.611;exp_sofc_final;;02.01.2026;6.004.412.044.809.740;2026-03-28 21h19.13.703813 +0100
;58;0;58;;;;None;None;;;;;;;;;;;;;58;0;58;0;9.326.669.950.000.940;;;;;;;;;;;;;;;;clips/clip_holo_23_sub_1.mp4;audios/silence.mp3;visual;[];None;None;;;;;;201;B;2026-03-28_21h19.11.611;exp_sofc_final;;02.01.2026;6.004.412.044.809.740;2026-03-28 21h19.13.703813 +0100
;59;0;59;;;;None;space;;;25.002.375.999.465.500;None;;;;;;;;;59;0;59;0;9.436.629.095.003.000;;;;;;;;;;;;;;;;clips/clip_herz_07_nosub_2.mp4;audios/clip_herz_07_nosub_2.mp3;audiovisual;[4.180731399916112, 10.751377100124955];None;space;;;;25.002.375.999.465.500;None;201;B;2026-03-28_21h19.11.611;exp_sofc_final;;02.01.2026;6.004.412.044.809.740;2026-03-28 21h19.13.703813 +0100
;60;0;60;;;;None;None;;;;;;;;;;;;;60;0;60;0;959.157.214.100.007;;;;;;;;;;;;;;;;clips/clip_wurst_13_sub_0.mp4;audios/clip_wurst_13_sub_0.mp3;audiovisual;[];None;None;;;;;;201;B;2026-03-28_21h19.11.611;exp_sofc_final;;02.01.2026;6.004.412.044.809.740;2026-03-28 21h19.13.703813 +0100
;61;0;61;;;;None;None;;;;;;;;;;;;;61;0;61;0;9.696.093.276.999.890;;;;;;;;;;;;;;;;clips/clip_weißt_01_nosub_1.mp4;audios/clip_weißt_01_nosub_1.mp3;audiovisual;[5.851400800049305];None;None;;;;;;201;B;2026-03-28_21h19.11.611;exp_sofc_final;;02.01.2026;6.004.412.044.809.740;2026-03-28 21h19.13.703813 +0100
;62;0;62;;;;2;None;3.398.964.799.940.580;None;;;;;;;;;;;62;0;62;0;9.814.990.584.002.800;;;;;;;;;;;;;;;;clips/clip_wurst_32_sub_1.mp4;audios/silence.mp3;visual;[7.382151100318879];2;None;2;3.398.964.799.940.580;None;;;201;B;2026-03-28_21h19.11.611;exp_sofc_final;;02.01.2026;6.004.412.044.809.740;2026-03-28 21h19.13.703813 +0100
;63;0;63;;;;None;None;;;;;;;;;;;;;63;0;63;0;9.964.871.086.003.250;;;;;;;;;;;;;;;;clips/clip_holo_18_nosub_0.mp4;audios/clip_holo_18_nosub_0.mp3;audiovisual;[6.391812699846923, 8.801556999795139];None;None;;;;;;201;B;2026-03-28_21h19.11.611;exp_sofc_final;;02.01.2026;6.004.412.044.809.740;2026-03-28 21h19.13.703813 +0100
;64;0;64;;;;4;None;4.728.275.599.889.450;None;;;;;;;;;;;64;0;64;0;10.090.753.290.001.300;;;;;;;;;;;;;;;;clips/clip_holo_15_sub_0.mp4;audios/silence.mp3;visual;[6.199542000424117];4;None;4;4.728.275.599.889.450;None;;;201;B;2026-03-28_21h19.11.611;exp_sofc_final;;02.01.2026;6.004.412.044.809.740;2026-03-28 21h19.13.703813 +0100
;65;0;65;;;;None;None;;;;;;;;;;;;;65;0;65;0;1.024.166.237.700.260;;;;;;;;;;;;;;;;clips/clip_holo_08_sub_2.mp4;audios/clip_holo_08_sub_2.mp3;audiovisual;[4.323525399900973, 9.275402800180018];None;None;;;;;;201;B;2026-03-28_21h19.11.611;exp_sofc_final;;02.01.2026;6.004.412.044.809.740;2026-03-28 21h19.13.703813 +0100
;66;0;66;;;;None;None;;;;;;;;;;;;;66;0;66;0;10.357.405.190.002.100;;;;;;;;;;;;;;;;clips/clip_holo_03_sub_1.mp4;audios/silence.mp3;visual;[7.4515903000719845];None;None;;;;;;201;B;2026-03-28_21h19.11.611;exp_sofc_final;;02.01.2026;6.004.412.044.809.740;2026-03-28 21h19.13.703813 +0100
;67;0;67;;;;None;None;;;;;;;;;;;;;67;0;67;0;10.459.942.144.001.800;;;;;;;;;;;;;;;;clips/clip_weißt_16_nosub_0.mp4;audios/clip_weißt_16_nosub_0.mp3;audiovisual;[];None;None;;;;;;201;B;2026-03-28_21h19.11.611;exp_sofc_final;;02.01.2026;6.004.412.044.809.740;2026-03-28 21h19.13.703813 +0100
;68;0;68;;;;None;None;;;;;;;;;;;;;68;0;68;0;1.057.380.483.300.420;;;;;;;;;;;;;;;;clips/clip_wurst_08_sub_1.mp4;audios/clip_wurst_08_sub_1.mp3;audiovisual;[5.528119100257754];None;None;;;;;;201;B;2026-03-28_21h19.11.611;exp_sofc_final;;02.01.2026;6.004.412.044.809.740;2026-03-28 21h19.13.703813 +0100
;69;0;69;;;;None;None;;;;;;;;;;;;;69;0;69;0;106.672.839.449.998;;;;;;;;;;;;;;;;clips/clip_holo_24_sub_2.mp4;audios/clip_holo_24_sub_2.mp3;audiovisual;[7.065269500017166, 9.799115699715912];None;None;;;;;;201;B;2026-03-28_21h19.11.611;exp_sofc_final;;02.01.2026;6.004.412.044.809.740;2026-03-28 21h19.13.703813 +0100
;70;0;70;;;;None;None;;;;;;;;;;;;;70;0;70;0;10.774.325.632.001.200;;;;;;;;;;;;;;;;clips/clip_holo_04_sub_2.mp4;audios/clip_holo_04_sub_2.mp3;audiovisual;[3.1426566001027822, 7.0049887001514435];None;None;;;;;;201;B;2026-03-28_21h19.11.611;exp_sofc_final;;02.01.2026;6.004.412.044.809.740;2026-03-28 21h19.13.703813 +0100
;71;0;71;;;;3;None;6.237.959.499.936.550;None;;;;;;;;;;;71;0;71;0;10.903.908.770.000.500;;;;;;;;;;;;;;;;clips/clip_wurst_21_sub_0.mp4;audios/clip_wurst_21_sub_0.mp3;audiovisual;[];3;None;3;6.237.959.499.936.550;None;;;201;B;2026-03-28_21h19.11.611;exp_sofc_final;;02.01.2026;6.004.412.044.809.740;2026-03-28 21h19.13.703813 +0100
;72;0;72;;;;None;None;;;;;;;;;;;;;72;0;72;0;11.080.951.033.001.700;;;;;;;;;;;;;;;;clips/clip_holo_09_nosub_2.mp4;audios/silence.mp3;visual;[];None;None;;;;;;201;B;2026-03-28_21h19.11.611;exp_sofc_final;;02.01.2026;6.004.412.044.809.740;2026-03-28 21h19.13.703813 +0100
;73;0;73;;;;None;None;;;;;;;;;;;;;73;0;73;0;11.203.343.621.999.900;;;;;;;;;;;;;;;;clips/clip_wurst_26_nosub_1.mp4;audios/silence.mp3;visual;[10.30324190016836];None;None;;;;;;201;B;2026-03-28_21h19.11.611;exp_sofc_final;;02.01.2026;6.004.412.044.809.740;2026-03-28 21h19.13.703813 +0100
;74;0;74;;;;None;None;;;;;;;;;;;;;74;0;74;0;1.133.219.086.300.110;;;;;;;;;;;;;;;;clips/clip_claude_02_sub_1.mp4;audios/silence.mp3;visual;[5.903335600160062];None;None;;;;;;201;B;2026-03-28_21h19.11.611;exp_sofc_final;;02.01.2026;6.004.412.044.809.740;2026-03-28 21h19.13.703813 +0100
;75;0;75;;;;2;None;5.990.942.499.600.350;None;;;;;;;;;;;75;0;75;0;11.438.808.977.999.700;;;;;;;;;;;;;;;;clips/clip_wurst_10_nosub_2.mp4;audios/silence.mp3;visual;[4.706356899812818, 7.1934718997217715];2;None;2;5.990.942.499.600.350;None;;;201;B;2026-03-28_21h19.11.611;exp_sofc_final;;02.01.2026;6.004.412.044.809.740;2026-03-28 21h19.13.703813 +0100
;76;0;76;;;;None;None;;;;;;;;;;;;;76;0;76;0;1.159.659.293.900.240;;;;;;;;;;;;;;;;clips/clip_hund_20_nosub_0.mp4;audios/silence.mp3;visual;[];None;None;;;;;;201;B;2026-03-28_21h19.11.611;exp_sofc_final;;02.01.2026;6.004.412.044.809.740;2026-03-28 21h19.13.703813 +0100
;77;0;77;;;;2;None;4.316.152.000.334.110;None;;;;;;;;;;;77;0;77;0;1.171.994.104.700.160;;;;;;;;;;;;;;;;clips/clip_hund_14_sub_2.mp4;audios/silence.mp3;visual;[6.127621300052851];2;None;2;4.316.152.000.334.110;None;;;201;B;2026-03-28_21h19.11.611;exp_sofc_final;;02.01.2026;6.004.412.044.809.740;2026-03-28 21h19.13.703813 +0100
;78;0;78;;;;None;None;;;;;;;;;;;;;78;0;78;0;11.871.989.047.001.100;;;;;;;;;;;;;;;;clips/clip_weißt_28_sub_1.mp4;audios/silence.mp3;visual;[2.2454874999821186, 6.930351599585265];None;None;;;;;;201;B;2026-03-28_21h19.11.611;exp_sofc_final;;02.01.2026;6.004.412.044.809.740;2026-03-28 21h19.13.703813 +0100
;79;0;79;;;;None;None;;;;;;;;;;;;;79;0;79;0;11.980.357.346.003.800;;;;;;;;;;;;;;;;clips/clip_herz_14_nosub_0.mp4;audios/silence.mp3;visual;[];None;None;;;;;;201;B;2026-03-28_21h19.11.611;exp_sofc_final;;02.01.2026;6.004.412.044.809.740;2026-03-28 21h19.13.703813 +0100
;80;0;80;;;;None;None;;;;;;;;;;;;;80;0;80;0;12.094.543.929.002.200;;;;;;;;;;;;;;;;clips/clip_hund_12_nosub_1.mp4;audios/silence.mp3;visual;[9.980677799787372];None;None;;;;;;201;B;2026-03-28_21h19.11.611;exp_sofc_final;;02.01.2026;6.004.412.044.809.740;2026-03-28 21h19.13.703813 +0100
;81;0;81;;;;None;None;;;;;;;;;;;;;81;0;81;0;12.216.270.902.003.100;;;;;;;;;;;;;;;;clips/clip_claude_05_nosub_2.mp4;audios/clip_claude_05_nosub_2.mp3;audiovisual;[4.65726329991594];None;None;;;;;;201;B;2026-03-28_21h19.11.611;exp_sofc_final;;02.01.2026;6.004.412.044.809.740;2026-03-28 21h19.13.703813 +0100
;82;0;82;;;;None;None;;;;;;;;;;;;;82;0;82;0;12.336.992.569.002.300;;;;;;;;;;;;;;;;clips/clip_claude_26_sub_0.mp4;audios/silence.mp3;visual;[4.221084100194275];None;None;;;;;;201;B;2026-03-28_21h19.11.611;exp_sofc_final;;02.01.2026;6.004.412.044.809.740;2026-03-28 21h19.13.703813 +0100
;83;0;83;;;;None;None;;;;;;;;;;;;;83;0;83;0;1.245.564.503.900.240;;;;;;;;;;;;;;;;clips/clip_herz_12_sub_0.mp4;audios/silence.mp3;visual;[5.904994599986821];None;None;;;;;;201;B;2026-03-28_21h19.11.611;exp_sofc_final;;02.01.2026;6.004.412.044.809.740;2026-03-28 21h19.13.703813 +0100
;84;0;84;;;;None;None;;;;;;;;;;;;;84;0;84;0;12.554.933.474.999.800;;;;;;;;;;;;;;;;clips/clip_dampf_03_sub_1.mp4;audios/clip_dampf_03_sub_1.mp3;audiovisual;[7.794561600312591];None;None;;;;;;201;B;2026-03-28_21h19.11.611;exp_sofc_final;;02.01.2026;6.004.412.044.809.740;2026-03-28 21h19.13.703813 +0100
;85;0;85;;;;None;None;;;;;;;;;;;;;85;0;85;0;1.264.043.429.700.190;;;;;;;;;;;;;;;;clips/clip_dampf_01_nosub_0.mp4;audios/clip_dampf_01_nosub_0.mp3;audiovisual;[];None;None;;;;;;201;B;2026-03-28_21h19.11.611;exp_sofc_final;;02.01.2026;6.004.412.044.809.740;2026-03-28 21h19.13.703813 +0100
;86;0;86;;;;None;None;;;;;;;;;;;;;86;0;86;0;12.743.832.094.999.900;;;;;;;;;;;;;;;;clips/clip_weißt_12_nosub_1.mp4;audios/clip_weißt_12_nosub_1.mp3;audiovisual;[9.15116549981758];None;None;;;;;;201;B;2026-03-28_21h19.11.611;exp_sofc_final;;02.01.2026;6.004.412.044.809.740;2026-03-28 21h19.13.703813 +0100
;87;0;87;;;;None;None;;;;;;;;;;;;;87;0;87;0;12.871.986.526.004.000;;;;;;;;;;;;;;;;clips/clip_holo_14_nosub_0.mp4;audios/clip_holo_14_nosub_0.mp3;audiovisual;[];None;None;;;;;;201;B;2026-03-28_21h19.11.611;exp_sofc_final;;02.01.2026;6.004.412.044.809.740;2026-03-28 21h19.13.703813 +0100
;88;0;88;;;;None;None;;;;;;;;;;;;;88;0;88;0;1.298.081.392.500.080;;;;;;;;;;;;;;;;clips/clip_holo_17_nosub_0.mp4;audios/silence.mp3;visual;[];None;None;;;;;;201;B;2026-03-28_21h19.11.611;exp_sofc_final;;02.01.2026;6.004.412.044.809.740;2026-03-28 21h19.13.703813 +0100
;89;0;89;;;;None;None;;;;;;;;;;;;;89;0;89;0;1.308.826.460.200.360;;;;;;;;;;;;;;;;clips/clip_holo_20_sub_1.mp4;audios/clip_holo_20_sub_1.mp3;audiovisual;[1.8095911997370422];None;None;;;;;;201;B;2026-03-28_21h19.11.611;exp_sofc_final;;02.01.2026;6.004.412.044.809.740;2026-03-28 21h19.13.703813 +0100
;90;0;90;;;;None;None;;;;;;;;;;;;;90;0;90;0;13.192.921.404.000.300;;;;;;;;;;;;;;;;clips/clip_weißt_27_nosub_1.mp4;audios/clip_weißt_27_nosub_1.mp3;audiovisual;[7.988111600279808];None;None;;;;;;201;B;2026-03-28_21h19.11.611;exp_sofc_final;;02.01.2026;6.004.412.044.809.740;2026-03-28 21h19.13.703813 +0100
;91;0;91;;;;1;None;54.816.955.998.539.900;None;;;;;;;;;;;91;0;91;0;13.300.814.645.001.600;;;;;;;;;;;;;;;;clips/clip_herz_10_nosub_0.mp4;audios/silence.mp3;visual;[];1;None;1;54.816.955.998.539.900;None;;;201;B;2026-03-28_21h19.11.611;exp_sofc_final;;02.01.2026;6.004.412.044.809.740;2026-03-28 21h19.13.703813 +0100
;92;0;92;;;;None;None;;;;;;;;;;;;;92;0;92;0;13.466.038.099.001.100;;;;;;;;;;;;;;;;clips/clip_claude_13_nosub_0.mp4;audios/clip_claude_13_nosub_0.mp3;audiovisual;[];None;None;;;;;;201;B;2026-03-28_21h19.11.611;exp_sofc_final;;02.01.2026;6.004.412.044.809.740;2026-03-28 21h19.13.703813 +0100
;93;0;93;;;;None;None;;;;;;;;;;;;;93;0;93;0;13.565.960.189.001.600;;;;;;;;;;;;;;;;clips/clip_hund_18_sub_1.mp4;audios/silence.mp3;visual;[6.988765299785882];None;None;;;;;;201;B;2026-03-28_21h19.11.611;exp_sofc_final;;02.01.2026;6.004.412.044.809.740;2026-03-28 21h19.13.703813 +0100
;94;0;94;;;;None;None;;;;;;;;;;;;;94;0;94;0;1.367.544.575.100.290;;;;;;;;;;;;;;;;clips/clip_hund_17_nosub_1.mp4;audios/clip_hund_17_nosub_1.mp3;audiovisual;[10.458347799722105];None;None;;;;;;201;B;2026-03-28_21h19.11.611;exp_sofc_final;;02.01.2026;6.004.412.044.809.740;2026-03-28 21h19.13.703813 +0100
;95;0;95;;;;None;None;;;;;;;;;;;;;95;0;95;0;13.807.128.981.002.600;;;;;;;;;;;;;;;;clips/clip_herz_04_sub_0.mp4;audios/silence.mp3;visual;[8.008440500125289];None;None;;;;;;201;B;2026-03-28_21h19.11.611;exp_sofc_final;;02.01.2026;6.004.412.044.809.740;2026-03-28 21h19.13.703813 +0100
;96;0;96;;;;None;None;;;;;;;;;;;;;96;0;96;0;13.925.896.713.002.500;;;;;;;;;;;;;;;;clips/clip_claude_18_sub_0.mp4;audios/silence.mp3;visual;[];None;None;;;;;;201;B;2026-03-28_21h19.11.611;exp_sofc_final;;02.01.2026;6.004.412.044.809.740;2026-03-28 21h19.13.703813 +0100
;97;0;97;;;;None;None;;;;;;;;;;;;;97;0;97;0;1.402.496.014.200.150;;;;;;;;;;;;;;;;clips/clip_weißt_23_sub_1.mp4;audios/silence.mp3;visual;[8.536630799993873];None;None;;;;;;201;B;2026-03-28_21h19.11.611;exp_sofc_final;;02.01.2026;6.004.412.044.809.740;2026-03-28 21h19.13.703813 +0100
;98;0;98;;;;None;None;;;;;;;;;;;;;98;0;98;0;1.414.835.259.300.190;;;;;;;;;;;;;;;;clips/clip_wurst_25_sub_1.mp4;audios/clip_wurst_25_sub_1.mp3;audiovisual;[];None;None;;;;;;201;B;2026-03-28_21h19.11.611;exp_sofc_final;;02.01.2026;6.004.412.044.809.740;2026-03-28 21h19.13.703813 +0100
;99;0;99;;;;None;None;;;;;;;;;;;;;99;0;99;0;14.269.147.030.999.800;;;;;;;;;;;;;;;;clips/clip_claude_14_sub_0.mp4;audios/silence.mp3;visual;[1.8736092001199722, 8.98655160004273];None;None;;;;;;201;B;2026-03-28_21h19.11.611;exp_sofc_final;;02.01.2026;6.004.412.044.809.740;2026-03-28 21h19.13.703813 +0100
;100;0;100;;;;None;None;;;;;;;;;;;;;100;0;100;0;14.388.833.513.003.700;;;;;;;;;;;;;;;;clips/clip_holo_16_sub_1.mp4;audios/clip_holo_16_sub_1.mp3;audiovisual;[10.48319899989292];None;None;;;;;;201;B;2026-03-28_21h19.11.611;exp_sofc_final;;02.01.2026;6.004.412.044.809.740;2026-03-28 21h19.13.703813 +0100
;101;0;101;;;;None;None;;;;;;;;;;;;;101;0;101;0;14.518.697.088.002.200;;;;;;;;;;;;;;;;clips/clip_wurst_19_nosub_0.mp4;audios/clip_wurst_19_nosub_0.mp3;audiovisual;[];None;None;;;;;;201;B;2026-03-28_21h19.11.611;exp_sofc_final;;02.01.2026;6.004.412.044.809.740;2026-03-28 21h19.13.703813 +0100
;102;0;102;;;;None;None;;;;;;;;;;;;;102;0;102;0;14.637.914.760.001.000;;;;;;;;;;;;;;;;clips/clip_hund_19_sub_0.mp4;audios/clip_hund_19_sub_0.mp3;audiovisual;[];None;None;;;;;;201;B;2026-03-28_21h19.11.611;exp_sofc_final;;02.01.2026;6.004.412.044.809.740;2026-03-28 21h19.13.703813 +0100
;103;0;103;;;;None;None;;;;;;;;;;;;;103;0;103;0;14.759.876.500.000.200;;;;;;;;;;;;;;;;clips/clip_weißt_26_nosub_1.mp4;audios/silence.mp3;visual;[7.484036200214177];None;None;;;;;;201;B;2026-03-28_21h19.11.611;exp_sofc_final;;02.01.2026;6.004.412.044.809.740;2026-03-28 21h19.13.703813 +0100
;104;0;104;;;;None;None;;;;;;;;;;;;;104;0;104;0;14.871.296.721.003.000;;;;;;;;;;;;;;;;clips/clip_hund_32_nosub_1.mp4;audios/silence.mp3;visual;[4.834796200040728, 6.718355699907988];None;None;;;;;;201;B;2026-03-28_21h19.11.611;exp_sofc_final;;02.01.2026;6.004.412.044.809.740;2026-03-28 21h19.13.703813 +0100
;105;0;105;;;;None;None;;;;;;;;;;;;;105;0;105;0;14.980.066.961.003.400;;;;;;;;;;;;;;;;clips/clip_holo_10_nosub_1.mp4;audios/clip_holo_10_nosub_1.mp3;audiovisual;[6.069880899973214];None;None;;;;;;201;B;2026-03-28_21h19.11.611;exp_sofc_final;;02.01.2026;6.004.412.044.809.740;2026-03-28 21h19.13.703813 +0100
;106;0;106;;;;1;None;11.856.360.599.864.200;None;;;;;;;;;;;106;0;106;0;1.508.798.400.199.970;;;;;;;;;;;;;;;;clips/clip_claude_03_sub_1.mp4;audios/clip_claude_03_sub_1.mp3;audiovisual;[5.1914121001027524];1;None;1;11.856.360.599.864.200;None;;;201;B;2026-03-28_21h19.11.611;exp_sofc_final;;02.01.2026;6.004.412.044.809.740;2026-03-28 21h19.13.703813 +0100
;107;0;107;;;;None;None;;;;;;;;;;;;;107;0;107;0;15.330.890.809.004.100;;;;;;;;;;;;;;;;clips/clip_weißt_13_sub_0.mp4;audios/silence.mp3;visual;[];None;None;;;;;;201;B;2026-03-28_21h19.11.611;exp_sofc_final;;02.01.2026;6.004.412.044.809.740;2026-03-28 21h19.13.703813 +0100
;108;0;108;;;;None;None;;;;;;;;;;;;;108;0;108;0;15.447.506.155.003.700;;;;;;;;;;;;;;;;clips/clip_lied_18_nosub_2.mp4;audios/silence.mp3;visual;[5.385517800226808, 7.46224440028891];None;None;;;;;;201;B;2026-03-28_21h19.11.611;exp_sofc_final;;02.01.2026;6.004.412.044.809.740;2026-03-28 21h19.13.703813 +0100
;109;0;109;;;;2;None;20.809.295.000.508.400;None;;;;;;;;;;;109;0;109;0;15.563.012.420.004.200;;;;;;;;;;;;;;;;clips/clip_lied_05_nosub_0.mp4;audios/silence.mp3;visual;[];2;None;2;20.809.295.000.508.400;None;;;201;B;2026-03-28_21h19.11.611;exp_sofc_final;;02.01.2026;6.004.412.044.809.740;2026-03-28 21h19.13.703813 +0100
;110;0;110;;;;None;None;;;;;;;;;;;;;110;0;110;0;15.687.941.662.003.200;;;;;;;;;;;;;;;;clips/clip_wurst_18_nosub_0.mp4;audios/silence.mp3;visual;[];None;None;;;;;;201;B;2026-03-28_21h19.11.611;exp_sofc_final;;02.01.2026;6.004.412.044.809.740;2026-03-28 21h19.13.703813 +0100
;111;0;111;;;;None;None;;;;;;;;;;;;;111;0;111;0;15.796.685.650.004.000;;;;;;;;;;;;;;;;clips/clip_herz_11_nosub_0.mp4;audios/clip_herz_11_nosub_0.mp3;audiovisual;[5.018826700281352];None;None;;;;;;201;B;2026-03-28_21h19.11.611;exp_sofc_final;;02.01.2026;6.004.412.044.809.740;2026-03-28 21h19.13.703813 +0100
;112;0;112;;;;None;None;;;;;;;;;;;;;112;0;112;0;1.589.839.637.100.230;;;;;;;;;;;;;;;;clips/clip_weißt_22_nosub_0.mp4;audios/clip_weißt_22_nosub_0.mp3;audiovisual;[];None;None;;;;;;201;B;2026-03-28_21h19.11.611;exp_sofc_final;;02.01.2026;6.004.412.044.809.740;2026-03-28 21h19.13.703813 +0100
;113;0;113;;;;None;None;;;;;;;;;;;;;113;0;113;0;16.018.195.428.000.700;;;;;;;;;;;;;;;;clips/clip_lied_07_sub_1.mp4;audios/silence.mp3;visual;[4.418284200131893];None;None;;;;;;201;B;2026-03-28_21h19.11.611;exp_sofc_final;;02.01.2026;6.004.412.044.809.740;2026-03-28 21h19.13.703813 +0100
;114;0;114;;;;None;None;;;;;;;;;;;;;114;0;114;0;1.611.734.053.000.340;;;;;;;;;;;;;;;;clips/clip_herz_15_nosub_0.mp4;audios/clip_herz_15_nosub_0.mp3;audiovisual;[3.278413400053978, 7.939305100124329];None;None;;;;;;201;B;2026-03-28_21h19.11.611;exp_sofc_final;;02.01.2026;6.004.412.044.809.740;2026-03-28 21h19.13.703813 +0100
;115;0;115;;;;None;None;;;;;;;;;;;;;115;0;115;0;16.246.341.420.002.200;;;;;;;;;;;;;;;;clips/clip_holo_12_sub_1.mp4;audios/clip_holo_12_sub_1.mp3;audiovisual;[8.589384299702942];None;None;;;;;;201;B;2026-03-28_21h19.11.611;exp_sofc_final;;02.01.2026;6.004.412.044.809.740;2026-03-28 21h19.13.703813 +0100
;116;0;116;;;;None;None;;;;;;;;;;;;;116;0;116;0;16.361.139.189.000.200;;;;;;;;;;;;;;;;clips/clip_weißt_06_nosub_0.mp4;audios/clip_weißt_06_nosub_0.mp3;audiovisual;[5.547878199722618];None;None;;;;;;201;B;2026-03-28_21h19.11.611;exp_sofc_final;;02.01.2026;6.004.412.044.809.740;2026-03-28 21h19.13.703813 +0100
;117;0;117;;;;1;None;8.439.548.899.885.260;None;;;;;;;;;;;117;0;117;0;16.468.401.661.003.000;;;;;;;;;;;;;;;;clips/clip_herz_09_sub_0.mp4;audios/clip_herz_09_sub_0.mp3;audiovisual;[];1;None;1;8.439.548.899.885.260;None;;;201;B;2026-03-28_21h19.11.611;exp_sofc_final;;02.01.2026;6.004.412.044.809.740;2026-03-28 21h19.13.703813 +0100
;118;0;118;;;;None;None;;;;;;;;;;;;;118;0;118;0;1.667.695.503.700.050;;;;;;;;;;;;;;;;clips/clip_claude_11_sub_0.mp4;audios/clip_claude_11_sub_0.mp3;audiovisual;[];None;None;;;;;;201;B;2026-03-28_21h19.11.611;exp_sofc_final;;02.01.2026;6.004.412.044.809.740;2026-03-28 21h19.13.703813 +0100
;119;0;119;;;;3;space;4.023.412.300.273.770;None;2.809.833.100.065.580;None;;;;;;;;;119;0;119;0;16.785.580.469.002.000;;;;;;;;;;;;;;;;clips/clip_hund_35_sub_0.mp4;audios/silence.mp3;visual;[];3;space;3;4.023.412.300.273.770;None;2.809.833.100.065.580;None;201;B;2026-03-28_21h19.11.611;exp_sofc_final;;02.01.2026;6.004.412.044.809.740;2026-03-28 21h19.13.703813 +0100
;120;0;120;;;;None;None;;;;;;;;;;;;;120;0;120;0;1.696.913.085.100.240;;;;;;;;;;;;;;;;clips/clip_lied_10_nosub_1.mp4;audios/clip_lied_10_nosub_1.mp3;audiovisual;[4.386436099652201];None;None;;;;;;201;B;2026-03-28_21h19.11.611;exp_sofc_final;;02.01.2026;6.004.412.044.809.740;2026-03-28 21h19.13.703813 +0100
;121;0;121;;;;None;None;;;;;;;;;;;;;121;0;121;0;17.091.787.427.002.500;;;;;;;;;;;;;;;;clips/clip_claude_12_nosub_0.mp4;audios/silence.mp3;visual;[];None;None;;;;;;201;B;2026-03-28_21h19.11.611;exp_sofc_final;;02.01.2026;6.004.412.044.809.740;2026-03-28 21h19.13.703813 +0100
;122;0;122;;;;None;None;;;;;;;;;;;;;122;0;122;0;1.719.279.493.200.120;;;;;;;;;;;;;;;;clips/clip_weißt_15_nosub_1.mp4;audios/silence.mp3;visual;[3.0060823997482657, 4.961430700030178];None;None;;;;;;201;B;2026-03-28_21h19.11.611;exp_sofc_final;;02.01.2026;6.004.412.044.809.740;2026-03-28 21h19.13.703813 +0100
;123;0;123;;;;None;None;;;;;;;;;;;;;123;0;123;0;173.126.929.570.036;;;;;;;;;;;;;;;;clips/clip_claude_29_nosub_0.mp4;audios/silence.mp3;visual;[];None;None;;;;;;201;B;2026-03-28_21h19.11.611;exp_sofc_final;;02.01.2026;6.004.412.044.809.740;2026-03-28 21h19.13.703813 +0100
;124;0;124;;;;None;None;;;;;;;;;;;;;124;0;124;0;17.419.965.254.999.600;;;;;;;;;;;;;;;;clips/clip_hund_10_sub_0.mp4;audios/silence.mp3;visual;[8.399837099947035];None;None;;;;;;201;B;2026-03-28_21h19.11.611;exp_sofc_final;;02.01.2026;6.004.412.044.809.740;2026-03-28 21h19.13.703813 +0100
;125;0;125;;;;None;None;;;;;;;;;;;;;125;0;125;0;17.524.517.851.001.500;;;;;;;;;;;;;;;;clips/clip_holo_26_nosub_2.mp4;audios/silence.mp3;visual;[6.141227500047535, 8.046356600243598];None;None;;;;;;201;B;2026-03-28_21h19.11.611;exp_sofc_final;;02.01.2026;6.004.412.044.809.740;2026-03-28 21h19.13.703813 +0100
;126;0;126;;;;1;None;6.175.476.800.184.690;None;;;;;;;;;;;126;0;126;0;17.624.997.702.003.400;;;;;;;;;;;;;;;;clips/clip_wurst_06_nosub_2.mp4;audios/clip_wurst_06_nosub_2.mp3;audiovisual;[2.701588800176978, 8.306817600037903];1;None;1;6.175.476.800.184.690;None;;;201;B;2026-03-28_21h19.11.611;exp_sofc_final;;02.01.2026;6.004.412.044.809.740;2026-03-28 21h19.13.703813 +0100
;127;0;127;;;;None;None;;;;;;;;;;;;;127;0;127;0;1.780.807.734.100.140;;;;;;;;;;;;;;;;clips/clip_hund_23_sub_1.mp4;audios/clip_hund_23_sub_1.mp3;audiovisual;[];None;None;;;;;;201;B;2026-03-28_21h19.11.611;exp_sofc_final;;02.01.2026;6.004.412.044.809.740;2026-03-28 21h19.13.703813 +0100
;128;0;128;;;;1;None;29.372.069.002.129.100;None;;;;;;;;;;;128;0;128;0;17.924.983.956.003.500;;;;;;;;;;;;;;;;clips/clip_herz_17_sub_0.mp4;audios/clip_herz_17_sub_0.mp3;audiovisual;[5.593661999795586];1;None;1;29.372.069.002.129.100;None;;;201;B;2026-03-28_21h19.11.611;exp_sofc_final;;02.01.2026;6.004.412.044.809.740;2026-03-28 21h19.13.703813 +0100
;129;0;129;;;;None;None;;;;;;;;;;;;;129;0;129;0;1.804.585.233.699.990;;;;;;;;;;;;;;;;clips/clip_holo_21_nosub_1.mp4;audios/silence.mp3;visual;[4.2586426003836095];None;None;;;;;;201;B;2026-03-28_21h19.11.611;exp_sofc_final;;02.01.2026;6.004.412.044.809.740;2026-03-28 21h19.13.703813 +0100
;130;0;130;;;;3;None;3.842.889.300.081.870;None;;;;;;;;;;;130;0;130;0;18.156.651.783.003.400;;;;;;;;;;;;;;;;clips/clip_lied_02_nosub_2.mp4;audios/clip_lied_02_nosub_2.mp3;audiovisual;[4.000485300086439, 9.488916100002825];3;None;3;3.842.889.300.081.870;None;;;201;B;2026-03-28_21h19.11.611;exp_sofc_final;;02.01.2026;6.004.412.044.809.740;2026-03-28 21h19.13.703813 +0100
;131;0;131;;;;None;None;;;;;;;;;;;;;131;0;131;0;1.831.483.061.300.120;;;;;;;;;;;;;;;;clips/clip_wurst_33_sub_0.mp4;audios/clip_wurst_33_sub_0.mp3;audiovisual;[];None;None;;;;;;201;B;2026-03-28_21h19.11.611;exp_sofc_final;;02.01.2026;6.004.412.044.809.740;2026-03-28 21h19.13.703813 +0100
;132;0;132;;;;None;None;;;;;;;;;;;;;132;0;132;0;1.842.058.064.199.980;;;;;;;;;;;;;;;;clips/clip_hund_21_nosub_1.mp4;audios/clip_hund_21_nosub_1.mp3;audiovisual;[6.612506200093776];None;None;;;;;;201;B;2026-03-28_21h19.11.611;exp_sofc_final;;02.01.2026;6.004.412.044.809.740;2026-03-28 21h19.13.703813 +0100
;133;0;133;;;;None;None;;;;;;;;;;;;;133;0;133;0;18.530.179.859.003.900;;;;;;;;;;;;;;;;clips/clip_hund_30_sub_0.mp4;audios/clip_hund_30_sub_0.mp3;audiovisual;[];None;None;;;;;;201;B;2026-03-28_21h19.11.611;exp_sofc_final;;02.01.2026;6.004.412.044.809.740;2026-03-28 21h19.13.703813 +0100
;134;0;134;;;;None;None;;;;;;;;;;;;;134;0;134;0;18.658.902.598.000.100;;;;;;;;;;;;;;;;clips/clip_dampf_02_sub_1.mp4;audios/silence.mp3;visual;[4.920285000000149];None;None;;;;;;201;B;2026-03-28_21h19.11.611;exp_sofc_final;;02.01.2026;6.004.412.044.809.740;2026-03-28 21h19.13.703813 +0100
;135;0;135;;;;None;None;;;;;;;;;;;;;135;0;135;0;18.760.879.646.004.100;;;;;;;;;;;;;;;;clips/clip_lied_20_sub_2.mp4;audios/silence.mp3;visual;[4.37002049991861, 8.346917800139636];None;None;;;;;;201;B;2026-03-28_21h19.11.611;exp_sofc_final;;02.01.2026;6.004.412.044.809.740;2026-03-28 21h19.13.703813 +0100
;136;0;136;;;;None;None;;;;;;;;;;;;;136;0;136;0;18.877.031.659.004.200;;;;;;;;;;;;;;;;clips/clip_holo_01_nosub_1.mp4;audios/silence.mp3;visual;[4.077152299694717];None;None;;;;;;201;B;2026-03-28_21h19.11.611;exp_sofc_final;;02.01.2026;6.004.412.044.809.740;2026-03-28 21h19.13.703813 +0100
;137;0;137;;;;None;None;;;;;;;;;;;;;137;0;137;0;1.897.752.532.500.300;;;;;;;;;;;;;;;;clips/clip_herz_02_nosub_0.mp4;audios/silence.mp3;visual;[1.6592371999286115, 9.181570299901068];None;None;;;;;;201;B;2026-03-28_21h19.11.611;exp_sofc_final;;02.01.2026;6.004.412.044.809.740;2026-03-28 21h19.13.703813 +0100
;138;0;138;;;;None;None;;;;;;;;;;;;;138;0;138;0;19.109.800.166.999.900;;;;;;;;;;;;;;;;clips/clip_wurst_07_sub_0.mp4;audios/silence.mp3;visual;[];None;None;;;;;;201;B;2026-03-28_21h19.11.611;exp_sofc_final;;02.01.2026;6.004.412.044.809.740;2026-03-28 21h19.13.703813 +0100
;139;0;139;;;;None;None;;;;;;;;;;;;;139;0;139;0;19.218.923.378.000.000;;;;;;;;;;;;;;;;clips/clip_wurst_03_sub_1.mp4;audios/silence.mp3;visual;[4.8373515997081995];None;None;;;;;;201;B;2026-03-28_21h19.11.611;exp_sofc_final;;02.01.2026;6.004.412.044.809.740;2026-03-28 21h19.13.703813 +0100
;140;0;140;;;;None;None;;;;;;;;;;;;;140;0;140;0;19.347.246.319.004.300;;;;;;;;;;;;;;;;clips/clip_herz_03_nosub_2.mp4;audios/clip_herz_03_nosub_2.mp3;audiovisual;[4.469631800428033, 11.381469600368291];None;None;;;;;;201;B;2026-03-28_21h19.11.611;exp_sofc_final;;02.01.2026;6.004.412.044.809.740;2026-03-28 21h19.13.703813 +0100
;141;0;141;;;;None;None;;;;;;;;;;;;;141;0;141;0;19.478.599.589.001.300;;;;;;;;;;;;;;;;clips/clip_lied_03_sub_1.mp4;audios/silence.mp3;visual;[4.522589199710637];None;None;;;;;;201;B;2026-03-28_21h19.11.611;exp_sofc_final;;02.01.2026;6.004.412.044.809.740;2026-03-28 21h19.13.703813 +0100
;142;0;142;;;;None;None;;;;;;;;;;;;;142;0;142;0;19.592.514.739.003.900;;;;;;;;;;;;;;;;clips/clip_claude_09_nosub_2.mp4;audios/clip_claude_09_nosub_2.mp3;audiovisual;[4.146558200009167];None;None;;;;;;201;B;2026-03-28_21h19.11.611;exp_sofc_final;;02.01.2026;6.004.412.044.809.740;2026-03-28 21h19.13.703813 +0100
;143;0;143;;;;None;None;;;;;;;;;;;;;143;0;143;0;19.703.016.768.000.000;;;;;;;;;;;;;;;;clips/clip_claude_15_sub_0.mp4;audios/clip_claude_15_sub_0.mp3;audiovisual;[];None;None;;;;;;201;B;2026-03-28_21h19.11.611;exp_sofc_final;;02.01.2026;6.004.412.044.809.740;2026-03-28 21h19.13.703813 +0100
;144;0;144;;;;None;None;;;;;;;;;;;;;144;0;144;0;19.832.049.061.004.000;;;;;;;;;;;;;;;;clips/clip_dampf_05_nosub_2.mp4;audios/clip_dampf_05_nosub_2.mp3;audiovisual;[3.9127036998979747, 8.580459900200367];None;None;;;;;;201;B;2026-03-28_21h19.11.611;exp_sofc_final;;02.01.2026;6.004.412.044.809.740;2026-03-28 21h19.13.703813 +0100
;145;0;145;;;;1;None;28.328.517.000.190.900;None;;;;;;;;;;;145;0;145;0;1.992.752.372.500.020;;;;;;;;;;;;;;;;clips/clip_wurst_27_nosub_1.mp4;audios/clip_wurst_27_nosub_1.mp3;audiovisual;[5.99596339976415];1;None;1;28.328.517.000.190.900;None;;;201;B;2026-03-28_21h19.11.611;exp_sofc_final;;02.01.2026;6.004.412.044.809.740;2026-03-28 21h19.13.703813 +0100
;146;0;146;;;;None;None;;;;;;;;;;;;;146;0;146;0;200.676.602.740.027;;;;;;;;;;;;;;;;clips/clip_holo_19_sub_1.mp4;audios/silence.mp3;visual;[6.602392500266433];None;None;;;;;;201;B;2026-03-28_21h19.11.611;exp_sofc_final;;02.01.2026;6.004.412.044.809.740;2026-03-28 21h19.13.703813 +0100
;147;0;147;;;;None;None;;;;;;;;;;;;;147;0;147;0;2.017.598.724.400.150;;;;;;;;;;;;;;;;clips/clip_holo_22_nosub_1.mp4;audios/clip_holo_22_nosub_1.mp3;audiovisual;[9.184020699933171];None;None;;;;;;201;B;2026-03-28_21h19.11.611;exp_sofc_final;;02.01.2026;6.004.412.044.809.740;2026-03-28 21h19.13.703813 +0100
;148;0;148;;;;None;None;;;;;;;;;;;;;148;0;148;0;20.276.341.868.001.000;;;;;;;;;;;;;;;;clips/clip_claude_07_sub_0.mp4;audios/clip_claude_07_sub_0.mp3;audiovisual;[];None;None;;;;;;201;B;2026-03-28_21h19.11.611;exp_sofc_final;;02.01.2026;6.004.412.044.809.740;2026-03-28 21h19.13.703813 +0100
;149;0;149;;;;3;None;34.032.999.998.889.800;None;;;;;;;;;;;149;0;149;0;20.385.322.430.003.400;;;;;;;;;;;;;;;;clips/clip_herz_01_sub_1.mp4;audios/clip_herz_01_sub_1.mp3;audiovisual;[6.3211378999985754];3;None;3;34.032.999.998.889.800;None;;;201;B;2026-03-28_21h19.11.611;exp_sofc_final;;02.01.2026;6.004.412.044.809.740;2026-03-28 21h19.13.703813 +0100
;150;0;150;;;;None;None;;;;;;;;;;;;;150;0;150;0;20.535.445.538.000.200;;;;;;;;;;;;;;;;clips/clip_wurst_30_nosub_1.mp4;audios/silence.mp3;visual;[];None;None;;;;;;201;B;2026-03-28_21h19.11.611;exp_sofc_final;;02.01.2026;6.004.412.044.809.740;2026-03-28 21h19.13.703813 +0100
;151;0;151;;;;None;None;;;;;;;;;;;;;151;0;151;0;2.064.334.458.300.370;;;;;;;;;;;;;;;;clips/clip_wurst_35_nosub_0.mp4;audios/clip_wurst_35_nosub_0.mp3;audiovisual;[];None;None;;;;;;201;B;2026-03-28_21h19.11.611;exp_sofc_final;;02.01.2026;6.004.412.044.809.740;2026-03-28 21h19.13.703813 +0100
;152;0;152;;;;None;None;;;;;;;;;;;;;152;0;152;0;20.745.259.930.002.500;;;;;;;;;;;;;;;;clips/clip_hund_09_nosub_2.mp4;audios/clip_hund_09_nosub_2.mp3;audiovisual;[5.4563711998052895, 10.69631029991433];None;None;;;;;;201;B;2026-03-28_21h19.11.611;exp_sofc_final;;02.01.2026;6.004.412.044.809.740;2026-03-28 21h19.13.703813 +0100
;153;0;153;;;;2;None;6.403.198.500.163.850;None;;;;;;;;;;;153;0;153;0;20.869.303.640.001.400;;;;;;;;;;;;;;;;clips/clip_claude_24_nosub_1.mp4;audios/silence.mp3;visual;[6.226085999980569];2;None;4;6.403.198.500.163.850;None;;;201;B;2026-03-28_21h19.11.611;exp_sofc_final;;02.01.2026;6.004.412.044.809.740;2026-03-28 21h19.13.703813 +0100
;154;0;154;;;;None;None;;;;;;;;;;;;;154;0;154;0;21.004.938.493.003.100;;;;;;;;;;;;;;;;clips/clip_hund_01_sub_0.mp4;audios/clip_hund_01_sub_0.mp3;audiovisual;[];None;None;;;;;;201;B;2026-03-28_21h19.11.611;exp_sofc_final;;02.01.2026;6.004.412.044.809.740;2026-03-28 21h19.13.703813 +0100
;155;0;155;;;;None;None;;;;;;;;;;;;;155;0;155;0;21.120.482.960.999.900;;;;;;;;;;;;;;;;clips/clip_hund_08_nosub_1.mp4;audios/silence.mp3;visual;[];None;None;;;;;;201;B;2026-03-28_21h19.11.611;exp_sofc_final;;02.01.2026;6.004.412.044.809.740;2026-03-28 21h19.13.703813 +0100
;156;0;156;;;;None;None;;;;;;;;;;;;;156;0;156;0;2.122.973.901.899.990;;;;;;;;;;;;;;;;clips/clip_wurst_24_sub_1.mp4;audios/silence.mp3;visual;[];None;None;;;;;;201;B;2026-03-28_21h19.11.611;exp_sofc_final;;02.01.2026;6.004.412.044.809.740;2026-03-28 21h19.13.703813 +0100
;157;0;157;;;;2;None;4.179.560.100.194.060;None;;;;;;;;;;;157;0;157;0;2.135.185.645.800.080;;;;;;;;;;;;;;;;clips/clip_hund_27_nosub_1.mp4;audios/clip_hund_27_nosub_1.mp3;audiovisual;[4.806611000094563];2;None;2;4.179.560.100.194.060;None;;;201;B;2026-03-28_21h19.11.611;exp_sofc_final;;02.01.2026;6.004.412.044.809.740;2026-03-28 21h19.13.703813 +0100
;158;0;158;;;;None;None;;;;;;;;;;;;;158;0;158;0;21.505.202.190.000.500;;;;;;;;;;;;;;;;clips/clip_wurst_16_sub_0.mp4;audios/silence.mp3;visual;[];None;None;;;;;;201;B;2026-03-28_21h19.11.611;exp_sofc_final;;02.01.2026;6.004.412.044.809.740;2026-03-28 21h19.13.703813 +0100
;159;0;159;;;;None;None;;;;;;;;;;;;;159;0;159;0;21.613.253.288.003.600;;;;;;;;;;;;;;;;clips/clip_claude_10_sub_0.mp4;audios/silence.mp3;visual;[];None;None;;;;;;201;B;2026-03-28_21h19.11.611;exp_sofc_final;;02.01.2026;6.004.412.044.809.740;2026-03-28 21h19.13.703813 +0100
;160;0;160;;;;None;None;;;;;;;;;;;;;160;0;160;0;2.173.479.783.200.190;;;;;;;;;;;;;;;;clips/clip_wurst_28_sub_1.mp4;audios/silence.mp3;visual;[];None;None;;;;;;201;B;2026-03-28_21h19.11.611;exp_sofc_final;;02.01.2026;6.004.412.044.809.740;2026-03-28 21h19.13.703813 +0100
;161;0;161;;;;3;None;821.231.639.990.583;None;;;;;;;;;;;161;0;161;0;21.846.640.941.002.400;;;;;;;;;;;;;;;;clips/clip_wurst_05_nosub_0.mp4;audios/silence.mp3;visual;[];3;None;3;821.231.639.990.583;None;;;201;B;2026-03-28_21h19.11.611;exp_sofc_final;;02.01.2026;6.004.412.044.809.740;2026-03-28 21h19.13.703813 +0100
;162;0;162;;;;None;None;;;;;;;;;;;;;162;0;162;0;22.026.069.585.001.000;;;;;;;;;;;;;;;;clips/clip_hund_36_sub_2.mp4;audios/clip_hund_36_sub_2.mp3;audiovisual;[5.998280799947679];None;None;;;;;;201;B;2026-03-28_21h19.11.611;exp_sofc_final;;02.01.2026;6.004.412.044.809.740;2026-03-28 21h19.13.703813 +0100
;163;0;163;;;;None;None;;;;;;;;;;;;;163;0;163;0;22.124.825.779.004.000;;;;;;;;;;;;;;;;clips/clip_claude_16_nosub_1.mp4;audios/silence.mp3;visual;[9.11348529998213];None;None;;;;;;201;B;2026-03-28_21h19.11.611;exp_sofc_final;;02.01.2026;6.004.412.044.809.740;2026-03-28 21h19.13.703813 +0100
;164;0;164;;;;None;None;;;;;;;;;;;;;164;0;164;0;2.224.636.061.700.060;;;;;;;;;;;;;;;;clips/clip_wurst_15_nosub_2.mp4;audios/clip_wurst_15_nosub_2.mp3;audiovisual;[5.5553685002960265, 7.810707000084221];None;None;;;;;;201;B;2026-03-28_21h19.11.611;exp_sofc_final;;02.01.2026;6.004.412.044.809.740;2026-03-28 21h19.13.703813 +0100
;165;0;165;;;;None;None;;;;;;;;;;;;;165;0;165;0;2.235.175.123.100.160;;;;;;;;;;;;;;;;clips/clip_wurst_23_nosub_2.mp4;audios/clip_wurst_23_nosub_2.mp3;audiovisual;[3.894244299735874, 7.743984600063413];None;None;;;;;;201;B;2026-03-28_21h19.11.611;exp_sofc_final;;02.01.2026;6.004.412.044.809.740;2026-03-28 21h19.13.703813 +0100
;166;0;166;;;;None;None;;;;;;;;;;;;;166;0;166;0;22.464.626.548.001.500;;;;;;;;;;;;;;;;clips/clip_wurst_11_nosub_0.mp4;audios/clip_wurst_11_nosub_0.mp3;audiovisual;[];None;None;;;;;;201;B;2026-03-28_21h19.11.611;exp_sofc_final;;02.01.2026;6.004.412.044.809.740;2026-03-28 21h19.13.703813 +0100
;167;0;167;;;;None;None;;;;;;;;;;;;;167;0;167;0;22.592.556.578.000.000;;;;;;;;;;;;;;;;clips/clip_hund_07_sub_1.mp4;audios/clip_hund_07_sub_1.mp3;audiovisual;[6.683512199670076];None;None;;;;;;201;B;2026-03-28_21h19.11.611;exp_sofc_final;;02.01.2026;6.004.412.044.809.740;2026-03-28 21h19.13.703813 +0100
;168;0;168;;;;None;None;;;;;;;;;;;;;168;0;168;0;22.717.015.593.000.600;;;;;;;;;;;;;;;;clips/clip_weißt_14_sub_2.mp4;audios/clip_weißt_14_sub_2.mp3;audiovisual;[2.7748943003825843, 8.217742200009525];None;None;;;;;;201;B;2026-03-28_21h19.11.611;exp_sofc_final;;02.01.2026;6.004.412.044.809.740;2026-03-28 21h19.13.703813 +0100
;169;0;169;;;;None;None;;;;;;;;;;;;;169;0;169;0;22.813.967.436.002.500;;;;;;;;;;;;;;;;clips/clip_weißt_17_sub_0.mp4;audios/silence.mp3;visual;[];None;None;;;;;;201;B;2026-03-28_21h19.11.611;exp_sofc_final;;02.01.2026;6.004.412.044.809.740;2026-03-28 21h19.13.703813 +0100
;170;0;170;;;;None;None;;;;;;;;;;;;;170;0;170;0;22.937.820.116.002.100;;;;;;;;;;;;;;;;clips/clip_claude_22_sub_2.mp4;audios/silence.mp3;visual;[8.415734600275755];None;None;;;;;;201;B;2026-03-28_21h19.11.611;exp_sofc_final;;02.01.2026;6.004.412.044.809.740;2026-03-28 21h19.13.703813 +0100
;171;0;171;;;;None;None;;;;;;;;;;;;;171;0;171;0;23.054.468.082.003.200;;;;;;;;;;;;;;;;clips/clip_holo_28_sub_0.mp4;audios/silence.mp3;visual;[];None;None;;;;;;201;B;2026-03-28_21h19.11.611;exp_sofc_final;;02.01.2026;6.004.412.044.809.740;2026-03-28 21h19.13.703813 +0100
;172;0;172;;;;None;None;;;;;;;;;;;;;172;0;172;0;2.314.856.018.200.050;;;;;;;;;;;;;;;;clips/clip_lied_17_sub_2.mp4;audios/clip_lied_17_sub_2.mp3;audiovisual;[2.8866825997829437, 7.898518499918282];None;None;;;;;;201;B;2026-03-28_21h19.11.611;exp_sofc_final;;02.01.2026;6.004.412.044.809.740;2026-03-28 21h19.13.703813 +0100
;173;0;173;;;;None;None;;;;;;;;;;;;;173;0;173;0;23.256.893.060.002.400;;;;;;;;;;;;;;;;clips/clip_claude_25_nosub_0.mp4;audios/clip_claude_25_nosub_0.mp3;audiovisual;[];None;None;;;;;;201;B;2026-03-28_21h19.11.611;exp_sofc_final;;02.01.2026;6.004.412.044.809.740;2026-03-28 21h19.13.703813 +0100
;174;0;174;;;;None;None;;;;;;;;;;;;;174;0;174;0;23.368.215.016.000.900;;;;;;;;;;;;;;;;clips/clip_weißt_25_sub_1.mp4;audios/clip_weißt_25_sub_1.mp3;audiovisual;[5.320562500040978];None;None;;;;;;201;B;2026-03-28_21h19.11.611;exp_sofc_final;;02.01.2026;6.004.412.044.809.740;2026-03-28 21h19.13.703813 +0100
;175;0;175;;;;None;None;;;;;;;;;;;;;175;0;175;0;23.496.740.759.001.100;;;;;;;;;;;;;;;;clips/clip_wurst_04_sub_2.mp4;audios/clip_wurst_04_sub_2.mp3;audiovisual;[4.276174900121987, 7.358614599797875];None;None;;;;;;201;B;2026-03-28_21h19.11.611;exp_sofc_final;;02.01.2026;6.004.412.044.809.740;2026-03-28 21h19.13.703813 +0100
;176;0;176;;;;None;None;;;;;;;;;;;;;176;0;176;0;23.621.509.778.001.300;;;;;;;;;;;;;;;;clips/clip_hund_11_sub_1.mp4;audios/clip_hund_11_sub_1.mp3;audiovisual;[6.370500599965453];None;None;;;;;;201;B;2026-03-28_21h19.11.611;exp_sofc_final;;02.01.2026;6.004.412.044.809.740;2026-03-28 21h19.13.703813 +0100
;177;0;177;;;;None;None;;;;;;;;;;;;;177;0;177;0;2.372.785.259.100.140;;;;;;;;;;;;;;;;clips/clip_lied_22_nosub_1.mp4;audios/silence.mp3;visual;[6.027299799956381];None;None;;;;;;201;B;2026-03-28_21h19.11.611;exp_sofc_final;;02.01.2026;6.004.412.044.809.740;2026-03-28 21h19.13.703813 +0100
;178;0;178;;;;3;None;5.727.234.799.880.530;None;;;;;;;;;;;178;0;178;0;23.840.789.280.002.900;;;;;;;;;;;;;;;;clips/clip_holo_13_nosub_1.mp4;audios/silence.mp3;visual;[0.8607001001946628, 4.509292300324887];3;None;3;5.727.234.799.880.530;None;;;201;B;2026-03-28_21h19.11.611;exp_sofc_final;;02.01.2026;6.004.412.044.809.740;2026-03-28 21h19.13.703813 +0100
;179;0;179;;;;2;None;36.958.379.996.940.400;None;;;;;;;;;;;179;0;179;0;24.027.325.715.003.500;;;;;;;;;;;;;;;;clips/clip_holo_27_nosub_1.mp4;audios/clip_holo_27_nosub_1.mp3;audiovisual;[5.423381700180471];2;None;2;36.958.379.996.940.400;None;;;201;B;2026-03-28_21h19.11.611;exp_sofc_final;;02.01.2026;6.004.412.044.809.740;2026-03-28 21h19.13.703813 +0100
;;;;;;;;;;;;;;;;;;;;;;;;;;;;;;;;;;;;;;;;;;;;;;;;;;;;201;B;2026-03-28_21h19.11.611;exp_sofc_final;;02.01.2026;6.004.412.044.809.740;2026-03-28 21h19.13.703813 +0100
