instruction_text;thisN;thisTrialN;thisRepN;prac_attention_resp.keys;prac_attention_resp.rt;prac_attention_resp.duration;exp_atttention_resp.keys;exp_pause_resp.keys;exp_atttention_resp.rt;exp_atttention_resp.duration;exp_pause_resp.rt;exp_pause_resp.duration;instruction_trial.thisRepN;instruction_trial.thisTrialN;instruction_trial.thisN;instruction_trial.thisIndex;practice_trials.thisRepN;practice_trials.thisTrialN;practice_trials.thisN;practice_trials.thisIndex;experiment_trials.thisRepN;experiment_trials.thisTrialN;experiment_trials.thisN;experiment_trials.thisIndex;thisRow.t;notes;piloting;assigned_ls_group;slider_informed_consent.response;Practice_clip_name;Practice_video_used;Practice_audio_used;Practice_modality;Practice_subtitles;Practice_attention_check;Practice_all_cut_rts;Practice_correct_key_required;practice_trials.prac_attention_resp.keys;practice_trials.prac_attention_resp.rt;practice_trials.prac_attention_resp.duration;video_used;audio_used;condition_modality;all_cut_rts;experiment_trials.exp_atttention_resp.keys;experiment_trials.exp_pause_resp.keys;correct_key_required;experiment_trials.exp_atttention_resp.rt;experiment_trials.exp_atttention_resp.duration;experiment_trials.exp_pause_resp.rt;experiment_trials.exp_pause_resp.duration;participant;session;date;expName;expVersion;psychopyVersion;frameRate;expStart
Einverständniserklärung;;;;;;;;;;;;;;;;;;;;;;;;;;;;;;;;;;;;;;;;;;;;;;;;;;;;;;;;;;;
;;;;;;;;;;;;;;;;;;;;;;;;;;;;;;;;;;;;;;;;;;;;;;;;;;;;202;B;2026-03-30_11h51.24.960;exp_sofc_final;;02.01.2026;6.004.383.185.569.160;2026-03-30 11h51.26.439313 +0200
;0;0;0;4;6.772.592.900.320.880;None;;;;;;;;;;;0;0;0;0;;;;;24.323.599.530.011.400;;;;;clip_hund_26_sub_1;clips/clip_hund_26_sub_1.mp4;audios/silence.mp3;visual;sub;True;[];4;4;6.772.592.900.320.880;None;;;;;;;;;;;;202;B;2026-03-30_11h51.24.960;exp_sofc_final;;02.01.2026;6.004.383.185.569.160;2026-03-30 11h51.26.439313 +0200
;1;0;1;None;;;;;;;;;;;;;1;0;1;0;;;;;2.596.618.106.998.500;;;;;clip_weißt_18_nosub_1;clips/clip_weißt_18_nosub_1.mp4;audios/silence.mp3;visual;nosub;False;[8.631481500342488];;None;;;;;;;;;;;;;;202;B;2026-03-30_11h51.24.960;exp_sofc_final;;02.01.2026;6.004.383.185.569.160;2026-03-30 11h51.26.439313 +0200
;2;0;2;None;;;;;;;;;;;;;2;0;2;0;;;;;2.724.948.321.999.980;;;;;clip_hund_25_sub_1;clips/clip_hund_25_sub_1.mp4;audios/silence.mp3;visual;sub;False;[6.753334500361234];;None;;;;;;;;;;;;;;202;B;2026-03-30_11h51.24.960;exp_sofc_final;;02.01.2026;6.004.383.185.569.160;2026-03-30 11h51.26.439313 +0200
;3;0;3;None;;;;;;;;;;;;;3;0;3;0;;;;;2.816.338.705.997.910;;;;;clip_hund_31_sub_0;clips/clip_hund_31_sub_0.mp4;audios/silence.mp3;visual;sub;False;[3.6870929999276996];;None;;;;;;;;;;;;;;202;B;2026-03-30_11h51.24.960;exp_sofc_final;;02.01.2026;6.004.383.185.569.160;2026-03-30 11h51.26.439313 +0200
;4;0;4;None;;;;;;;;;;;;;4;0;4;0;;;;;29.094.678.530.003.800;;;;;clip_weißt_10_nosub_1;clips/clip_weißt_10_nosub_1.mp4;audios/clip_weißt_10_nosub_1.mp3;audiovisual;nosub;False;[5.5131152998656034];;None;;;;;;;;;;;;;;202;B;2026-03-30_11h51.24.960;exp_sofc_final;;02.01.2026;6.004.383.185.569.160;2026-03-30 11h51.26.439313 +0200
;5;0;5;None;;;;;;;;;;;;;5;0;5;0;;;;;3.027.759.917.997.750;;;;;clip_hund_02_sub_1;clips/clip_hund_02_sub_1.mp4;audios/clip_hund_02_sub_1.mp3;audiovisual;sub;False;[9.472191500011832];;None;;;;;;;;;;;;;;202;B;2026-03-30_11h51.24.960;exp_sofc_final;;02.01.2026;6.004.383.185.569.160;2026-03-30 11h51.26.439313 +0200
;6;0;6;4;1.387.569.750.007.240;None;;;;;;;;;;;6;0;6;0;;;;;31.355.758.089.991.200;;;;;clip_weißt_09_sub_1;clips/clip_weißt_09_sub_1.mp4;audios/silence.mp3;visual;sub;True;[6.320196399930865];4;4;1.387.569.750.007.240;None;;;;;;;;;;;;202;B;2026-03-30_11h51.24.960;exp_sofc_final;;02.01.2026;6.004.383.185.569.160;2026-03-30 11h51.26.439313 +0200
;7;0;7;None;;;;;;;;;;;;;7;0;7;0;;;;;33.735.304.669.989.200;;;;;clip_wurst_09_sub_1;clips/clip_wurst_09_sub_1.mp4;audios/clip_wurst_09_sub_1.mp3;audiovisual;sub;False;[4.844572999980301];;None;;;;;;;;;;;;;;202;B;2026-03-30_11h51.24.960;exp_sofc_final;;02.01.2026;6.004.383.185.569.160;2026-03-30 11h51.26.439313 +0200
;8;0;8;None;;;;;;;;;;;;;8;0;8;0;;;;;34.941.198.890.004.300;;;;;clip_weißt_21_nosub_0;clips/clip_weißt_21_nosub_0.mp4;audios/silence.mp3;visual;nosub;False;[];;None;;;;;;;;;;;;;;202;B;2026-03-30_11h51.24.960;exp_sofc_final;;02.01.2026;6.004.383.185.569.160;2026-03-30 11h51.26.439313 +0200
;9;0;9;1;7.775.388.399.604.700;None;;;;;;;;;;;9;0;9;0;;;;;36.037.406.249.996.200;;;;;clip_hund_06_nosub_0;clips/clip_hund_06_nosub_0.mp4;audios/clip_hund_06_nosub_0.mp3;audiovisual;nosub;True;[];1;1;7.775.388.399.604.700;None;;;;;;;;;;;;202;B;2026-03-30_11h51.24.960;exp_sofc_final;;02.01.2026;6.004.383.185.569.160;2026-03-30 11h51.26.439313 +0200
;10;0;10;2;4.651.751.999.743.280;None;;;;;;;;;;;10;0;10;0;;;;;3.799.135.392.997.410;;;;;clip_hund_28_nosub_0;clips/clip_hund_28_nosub_0.mp4;audios/clip_hund_28_nosub_0.mp3;audiovisual;nosub;True;[];2;2;4.651.751.999.743.280;None;;;;;;;;;;;;202;B;2026-03-30_11h51.24.960;exp_sofc_final;;02.01.2026;6.004.383.185.569.160;2026-03-30 11h51.26.439313 +0200
;11;0;11;None;;;;;;;;;;;;;11;0;11;0;;;;;3.953.022.821.000.770;;;;;clip_weißt_05_sub_0;clips/clip_weißt_05_sub_0.mp4;audios/clip_weißt_05_sub_0.mp3;audiovisual;sub;False;[];;None;;;;;;;;;;;;;;202;B;2026-03-30_11h51.24.960;exp_sofc_final;;02.01.2026;6.004.383.185.569.160;2026-03-30 11h51.26.439313 +0200
;;;;;;;;;;;;;;;;;;;;;;;;;;;;;;;;;;;;;;;;;;;;;;;;;;;;202;B;2026-03-30_11h51.24.960;exp_sofc_final;;02.01.2026;6.004.383.185.569.160;2026-03-30 11h51.26.439313 +0200
;0;0;0;;;;None;None;;;;;;;;;;;;;0;0;0;0;46.588.010.959.979.100;;;;;;;;;;;;;;;;clips/clip_claude_27_sub_0.mp4;audios/clip_claude_27_sub_0.mp3;audiovisual;[];None;None;;;;;;202;B;2026-03-30_11h51.24.960;exp_sofc_final;;02.01.2026;6.004.383.185.569.160;2026-03-30 11h51.26.439313 +0200
;1;0;1;;;;None;None;;;;;;;;;;;;;1;0;1;0;47.870.006.750.011.800;;;;;;;;;;;;;;;;clips/clip_holo_07_sub_0.mp4;audios/silence.mp3;visual;[];None;None;;;;;;202;B;2026-03-30_11h51.24.960;exp_sofc_final;;02.01.2026;6.004.383.185.569.160;2026-03-30 11h51.26.439313 +0200
;2;0;2;;;;None;None;;;;;;;;;;;;;2;0;2;0;4.888.812.842.001.200;;;;;;;;;;;;;;;;clips/clip_weißt_20_nosub_1.mp4;audios/silence.mp3;visual;[8.691662000026554];None;None;;;;;;202;B;2026-03-30_11h51.24.960;exp_sofc_final;;02.01.2026;6.004.383.185.569.160;2026-03-30 11h51.26.439313 +0200
;3;0;3;;;;None;None;;;;;;;;;;;;;3;0;3;0;4.995.499.141.998.580;;;;;;;;;;;;;;;;clips/clip_wurst_25_sub_1.mp4;audios/clip_wurst_25_sub_1.mp3;audiovisual;[];None;None;;;;;;202;B;2026-03-30_11h51.24.960;exp_sofc_final;;02.01.2026;6.004.383.185.569.160;2026-03-30 11h51.26.439313 +0200
;4;0;4;;;;3;None;39.437.754.000.537.000;None;;;;;;;;;;;4;0;4;0;5.115.656.534.996.810;;;;;;;;;;;;;;;;clips/clip_weißt_28_sub_1.mp4;audios/silence.mp3;visual;[6.842412299942225];3;None;3;39.437.754.000.537.000;None;;;202;B;2026-03-30_11h51.24.960;exp_sofc_final;;02.01.2026;6.004.383.185.569.160;2026-03-30 11h51.26.439313 +0200
;5;0;5;;;;None;None;;;;;;;;;;;;;5;0;5;0;5.264.978.529.000.650;;;;;;;;;;;;;;;;clips/clip_hund_35_sub_0.mp4;audios/silence.mp3;visual;[];None;None;;;;;;202;B;2026-03-30_11h51.24.960;exp_sofc_final;;02.01.2026;6.004.383.185.569.160;2026-03-30 11h51.26.439313 +0200
;6;0;6;;;;None;None;;;;;;;;;;;;;6;0;6;0;5.377.282.298.998.900;;;;;;;;;;;;;;;;clips/clip_weißt_15_nosub_1.mp4;audios/silence.mp3;visual;[3.044214299879968];None;None;;;;;;202;B;2026-03-30_11h51.24.960;exp_sofc_final;;02.01.2026;6.004.383.185.569.160;2026-03-30 11h51.26.439313 +0200
;7;0;7;;;;None;None;;;;;;;;;;;;;7;0;7;0;5.494.990.346.999.830;;;;;;;;;;;;;;;;clips/clip_holo_16_sub_1.mp4;audios/clip_holo_16_sub_1.mp3;audiovisual;[10.53273699991405];None;None;;;;;;202;B;2026-03-30_11h51.24.960;exp_sofc_final;;02.01.2026;6.004.383.185.569.160;2026-03-30 11h51.26.439313 +0200
;8;0;8;;;;None;None;;;;;;;;;;;;;8;0;8;0;562.320.248.299.744;;;;;;;;;;;;;;;;clips/clip_claude_16_nosub_1.mp4;audios/silence.mp3;visual;[9.008317899890244];None;None;;;;;;202;B;2026-03-30_11h51.24.960;exp_sofc_final;;02.01.2026;6.004.383.185.569.160;2026-03-30 11h51.26.439313 +0200
;9;0;9;;;;None;None;;;;;;;;;;;;;9;0;9;0;5.743.860.017.000.690;;;;;;;;;;;;;;;;clips/clip_wurst_06_nosub_2.mp4;audios/clip_wurst_06_nosub_2.mp3;audiovisual;[8.269752100110054];None;None;;;;;;202;B;2026-03-30_11h51.24.960;exp_sofc_final;;02.01.2026;6.004.383.185.569.160;2026-03-30 11h51.26.439313 +0200
;10;0;10;;;;2;None;5.361.608.000.006.520;None;;;;;;;;;;;10;0;10;0;5.863.393.768.998.790;;;;;;;;;;;;;;;;clips/clip_wurst_13_sub_0.mp4;audios/clip_wurst_13_sub_0.mp3;audiovisual;[];2;None;4;5.361.608.000.006.520;None;;;202;B;2026-03-30_11h51.24.960;exp_sofc_final;;02.01.2026;6.004.383.185.569.160;2026-03-30 11h51.26.439313 +0200
;11;0;11;;;;3;None;1.880.629.549.967.120;None;;;;;;;;;;;11;0;11;0;6.022.549.070.999.950;;;;;;;;;;;;;;;;clips/clip_claude_20_nosub_1.mp4;audios/silence.mp3;visual;[6.763385199941695];3;None;3;1.880.629.549.967.120;None;;;202;B;2026-03-30_11h51.24.960;exp_sofc_final;;02.01.2026;6.004.383.185.569.160;2026-03-30 11h51.26.439313 +0200
;12;0;12;;;;4;None;4.442.095.899.954.430;None;;;;;;;;;;;12;0;12;0;6.338.906.346.000.730;;;;;;;;;;;;;;;;clips/clip_hund_18_sub_1.mp4;audios/silence.mp3;visual;[];4;None;4;4.442.095.899.954.430;None;;;202;B;2026-03-30_11h51.24.960;exp_sofc_final;;02.01.2026;6.004.383.185.569.160;2026-03-30 11h51.26.439313 +0200
;13;0;13;;;;2;None;416.942.030.005.157;None;;;;;;;;;;;13;0;13;0;649.232.613.099.739;;;;;;;;;;;;;;;;clips/clip_claude_02_sub_1.mp4;audios/silence.mp3;visual;[5.778714600019157];2;None;2;416.942.030.005.157;None;;;202;B;2026-03-30_11h51.24.960;exp_sofc_final;;02.01.2026;6.004.383.185.569.160;2026-03-30 11h51.26.439313 +0200
;14;0;14;;;;None;None;;;;;;;;;;;;;14;0;14;0;6.640.869.506.997.980;;;;;;;;;;;;;;;;clips/clip_weißt_03_sub_0.mp4;audios/clip_weißt_03_sub_0.mp3;audiovisual;[];None;None;;;;;;202;B;2026-03-30_11h51.24.960;exp_sofc_final;;02.01.2026;6.004.383.185.569.160;2026-03-30 11h51.26.439313 +0200
;15;0;15;;;;None;None;;;;;;;;;;;;;15;0;15;0;6.769.313.819.999.800;;;;;;;;;;;;;;;;clips/clip_hund_34_nosub_1.mp4;audios/clip_hund_34_nosub_1.mp3;audiovisual;[];None;None;;;;;;202;B;2026-03-30_11h51.24.960;exp_sofc_final;;02.01.2026;6.004.383.185.569.160;2026-03-30 11h51.26.439313 +0200
;16;0;16;;;;None;None;;;;;;;;;;;;;16;0;16;0;6.881.487.163.999.110;;;;;;;;;;;;;;;;clips/clip_claude_18_sub_0.mp4;audios/silence.mp3;visual;[];None;None;;;;;;202;B;2026-03-30_11h51.24.960;exp_sofc_final;;02.01.2026;6.004.383.185.569.160;2026-03-30 11h51.26.439313 +0200
;17;0;17;;;;None;None;;;;;;;;;;;;;17;0;17;0;6.979.906.297.000.120;;;;;;;;;;;;;;;;clips/clip_weißt_23_sub_1.mp4;audios/silence.mp3;visual;[8.482487000059336];None;None;;;;;;202;B;2026-03-30_11h51.24.960;exp_sofc_final;;02.01.2026;6.004.383.185.569.160;2026-03-30 11h51.26.439313 +0200
;18;0;18;;;;None;None;;;;;;;;;;;;;18;0;18;0;7.102.138.108.001.090;;;;;;;;;;;;;;;;clips/clip_wurst_20_sub_0.mp4;audios/silence.mp3;visual;[];None;None;;;;;;202;B;2026-03-30_11h51.24.960;exp_sofc_final;;02.01.2026;6.004.383.185.569.160;2026-03-30 11h51.26.439313 +0200
;19;0;19;;;;None;None;;;;;;;;;;;;;19;0;19;0;7.211.099.384.999.830;;;;;;;;;;;;;;;;clips/clip_claude_11_sub_0.mp4;audios/clip_claude_11_sub_0.mp3;audiovisual;[];None;None;;;;;;202;B;2026-03-30_11h51.24.960;exp_sofc_final;;02.01.2026;6.004.383.185.569.160;2026-03-30 11h51.26.439313 +0200
;20;0;20;;;;4;None;4.008.045.299.910.000;None;;;;;;;;;;;20;0;20;0;7.319.261.292.000.300;;;;;;;;;;;;;;;;clips/clip_claude_10_sub_0.mp4;audios/silence.mp3;visual;[];4;None;4;4.008.045.299.910.000;None;;;202;B;2026-03-30_11h51.24.960;exp_sofc_final;;02.01.2026;6.004.383.185.569.160;2026-03-30 11h51.26.439313 +0200
;21;0;21;;;;3;None;11.287.570.500.280.700;None;;;;;;;;;;;21;0;21;0;7.479.957.292.997.270;;;;;;;;;;;;;;;;clips/clip_herz_02_nosub_0.mp4;audios/silence.mp3;visual;[9.156286899931729];3;None;1;11.287.570.500.280.700;None;;;202;B;2026-03-30_11h51.24.960;exp_sofc_final;;02.01.2026;6.004.383.185.569.160;2026-03-30 11h51.26.439313 +0200
;22;0;22;;;;None;None;;;;;;;;;;;;;22;0;22;0;7.726.123.965.997.240;;;;;;;;;;;;;;;;clips/clip_holo_08_sub_2.mp4;audios/clip_holo_08_sub_2.mp3;audiovisual;[9.265213700011373];None;None;;;;;;202;B;2026-03-30_11h51.24.960;exp_sofc_final;;02.01.2026;6.004.383.185.569.160;2026-03-30 11h51.26.439313 +0200
;23;0;23;;;;None;None;;;;;;;;;;;;;23;0;23;0;784.228.307.900.019;;;;;;;;;;;;;;;;clips/clip_herz_05_sub_0.mp4;audios/clip_herz_05_sub_0.mp3;audiovisual;[5.920155600178987, 7.256216799840331];None;None;;;;;;202;B;2026-03-30_11h51.24.960;exp_sofc_final;;02.01.2026;6.004.383.185.569.160;2026-03-30 11h51.26.439313 +0200
;24;0;24;;;;None;None;;;;;;;;;;;;;24;0;24;0;7.953.063.682.001.080;;;;;;;;;;;;;;;;clips/clip_dampf_04_nosub_1.mp4;audios/silence.mp3;visual;[5.363657400012016];None;None;;;;;;202;B;2026-03-30_11h51.24.960;exp_sofc_final;;02.01.2026;6.004.383.185.569.160;2026-03-30 11h51.26.439313 +0200
;25;0;25;;;;3;None;6.877.875.099.889.930;None;;;;;;;;;;;25;0;25;0;8.058.120.940.998.190;;;;;;;;;;;;;;;;clips/clip_holo_04_sub_2.mp4;audios/clip_holo_04_sub_2.mp3;audiovisual;[7.107545800041407];3;None;3;6.877.875.099.889.930;None;;;202;B;2026-03-30_11h51.24.960;exp_sofc_final;;02.01.2026;6.004.383.185.569.160;2026-03-30 11h51.26.439313 +0200
;26;0;26;;;;None;None;;;;;;;;;;;;;26;0;26;0;8.255.648.852.000.010;;;;;;;;;;;;;;;;clips/clip_lied_04_sub_0.mp4;audios/clip_lied_04_sub_0.mp3;audiovisual;[];None;None;;;;;;202;B;2026-03-30_11h51.24.960;exp_sofc_final;;02.01.2026;6.004.383.185.569.160;2026-03-30 11h51.26.439313 +0200
;27;0;27;;;;2;None;2.964.525.599.963.960;None;;;;;;;;;;;27;0;27;0;8.373.348.964.997.560;;;;;;;;;;;;;;;;clips/clip_wurst_28_sub_1.mp4;audios/silence.mp3;visual;[];2;None;2;2.964.525.599.963.960;None;;;202;B;2026-03-30_11h51.24.960;exp_sofc_final;;02.01.2026;6.004.383.185.569.160;2026-03-30 11h51.26.439313 +0200
;28;0;28;;;;None;None;;;;;;;;;;;;;28;0;28;0;8.514.446.819.000.870;;;;;;;;;;;;;;;;clips/clip_lied_20_sub_2.mp4;audios/silence.mp3;visual;[3.8989010001532733, 8.157513200305402];None;None;;;;;;202;B;2026-03-30_11h51.24.960;exp_sofc_final;;02.01.2026;6.004.383.185.569.160;2026-03-30 11h51.26.439313 +0200
;29;0;29;;;;None;None;;;;;;;;;;;;;29;0;29;0;8.630.480.047.999.880;;;;;;;;;;;;;;;;clips/clip_lied_11_sub_1.mp4;audios/silence.mp3;visual;[8.211413700133562];None;None;;;;;;202;B;2026-03-30_11h51.24.960;exp_sofc_final;;02.01.2026;6.004.383.185.569.160;2026-03-30 11h51.26.439313 +0200
;30;0;30;;;;None;None;;;;;;;;;;;;;30;0;30;0;8.748.888.677.000.060;;;;;;;;;;;;;;;;clips/clip_wurst_22_nosub_0.mp4;audios/silence.mp3;visual;[];None;None;;;;;;202;B;2026-03-30_11h51.24.960;exp_sofc_final;;02.01.2026;6.004.383.185.569.160;2026-03-30 11h51.26.439313 +0200
;31;0;31;;;;None;None;;;;;;;;;;;;;31;0;31;0;8.874.204.545.998.940;;;;;;;;;;;;;;;;clips/clip_herz_15_nosub_0.mp4;audios/clip_herz_15_nosub_0.mp3;audiovisual;[0.37491830019280314, 8.16946170013398];None;None;;;;;;202;B;2026-03-30_11h51.24.960;exp_sofc_final;;02.01.2026;6.004.383.185.569.160;2026-03-30 11h51.26.439313 +0200
;32;0;32;;;;None;None;;;;;;;;;;;;;32;0;32;0;9.003.010.646.998.880;;;;;;;;;;;;;;;;clips/clip_wurst_29_sub_1.mp4;audios/clip_wurst_29_sub_1.mp3;audiovisual;[];None;None;;;;;;202;B;2026-03-30_11h51.24.960;exp_sofc_final;;02.01.2026;6.004.383.185.569.160;2026-03-30 11h51.26.439313 +0200
;33;0;33;;;;None;None;;;;;;;;;;;;;33;0;33;0;9.131.200.768.998.820;;;;;;;;;;;;;;;;clips/clip_wurst_08_sub_1.mp4;audios/clip_wurst_08_sub_1.mp3;audiovisual;[5.5375426998361945];None;None;;;;;;202;B;2026-03-30_11h51.24.960;exp_sofc_final;;02.01.2026;6.004.383.185.569.160;2026-03-30 11h51.26.439313 +0200
;34;0;34;;;;1;None;4.304.931.600.112.460;None;;;;;;;;;;;34;0;34;0;9.224.563.118.000.510;;;;;;;;;;;;;;;;clips/clip_weißt_11_nosub_0.mp4;audios/silence.mp3;visual;[];1;None;1;4.304.931.600.112.460;None;;;202;B;2026-03-30_11h51.24.960;exp_sofc_final;;02.01.2026;6.004.383.185.569.160;2026-03-30 11h51.26.439313 +0200
;35;0;35;;;;None;None;;;;;;;;;;;;;35;0;35;0;9.378.798.865.997.230;;;;;;;;;;;;;;;;clips/clip_weißt_13_sub_0.mp4;audios/silence.mp3;visual;[];None;None;;;;;;202;B;2026-03-30_11h51.24.960;exp_sofc_final;;02.01.2026;6.004.383.185.569.160;2026-03-30 11h51.26.439313 +0200
;36;0;36;;;;None;None;;;;;;;;;;;;;36;0;36;0;9.495.733.110.997.820;;;;;;;;;;;;;;;;clips/clip_weißt_19_sub_1.mp4;audios/clip_weißt_19_sub_1.mp3;audiovisual;[];None;None;;;;;;202;B;2026-03-30_11h51.24.960;exp_sofc_final;;02.01.2026;6.004.383.185.569.160;2026-03-30 11h51.26.439313 +0200
;37;0;37;;;;None;None;;;;;;;;;;;;;37;0;37;0;9.602.658.204.999.750;;;;;;;;;;;;;;;;clips/clip_holo_15_sub_0.mp4;audios/silence.mp3;visual;[6.479954699985683];None;None;;;;;;202;B;2026-03-30_11h51.24.960;exp_sofc_final;;02.01.2026;6.004.383.185.569.160;2026-03-30 11h51.26.439313 +0200
;38;0;38;;;;None;None;;;;;;;;;;;;;38;0;38;0;9.703.353.220.997.370;;;;;;;;;;;;;;;;clips/clip_lied_08_sub_1.mp4;audios/clip_lied_08_sub_1.mp3;audiovisual;[7.558912199921906];None;None;;;;;;202;B;2026-03-30_11h51.24.960;exp_sofc_final;;02.01.2026;6.004.383.185.569.160;2026-03-30 11h51.26.439313 +0200
;39;0;39;;;;None;None;;;;;;;;;;;;;39;0;39;0;9.802.352.696.997.110;;;;;;;;;;;;;;;;clips/clip_holo_23_sub_1.mp4;audios/silence.mp3;visual;[];None;None;;;;;;202;B;2026-03-30_11h51.24.960;exp_sofc_final;;02.01.2026;6.004.383.185.569.160;2026-03-30 11h51.26.439313 +0200
;40;0;40;;;;None;None;;;;;;;;;;;;;40;0;40;0;9.910.688.481.000.250;;;;;;;;;;;;;;;;clips/clip_wurst_18_nosub_0.mp4;audios/silence.mp3;visual;[];None;None;;;;;;202;B;2026-03-30_11h51.24.960;exp_sofc_final;;02.01.2026;6.004.383.185.569.160;2026-03-30 11h51.26.439313 +0200
;41;0;41;;;;None;None;;;;;;;;;;;;;41;0;41;0;10.018.962.777.997.300;;;;;;;;;;;;;;;;clips/clip_wurst_26_nosub_1.mp4;audios/silence.mp3;visual;[10.203894700389355];None;None;;;;;;202;B;2026-03-30_11h51.24.960;exp_sofc_final;;02.01.2026;6.004.383.185.569.160;2026-03-30 11h51.26.439313 +0200
;42;0;42;;;;None;None;;;;;;;;;;;;;42;0;42;0;10.147.721.464.000.600;;;;;;;;;;;;;;;;clips/clip_weißt_16_nosub_0.mp4;audios/clip_weißt_16_nosub_0.mp3;audiovisual;[];None;None;;;;;;202;B;2026-03-30_11h51.24.960;exp_sofc_final;;02.01.2026;6.004.383.185.569.160;2026-03-30 11h51.26.439313 +0200
;43;0;43;;;;None;None;;;;;;;;;;;;;43;0;43;0;10.261.179.451.998.300;;;;;;;;;;;;;;;;clips/clip_lied_12_sub_0.mp4;audios/clip_lied_12_sub_0.mp3;audiovisual;[];None;None;;;;;;202;B;2026-03-30_11h51.24.960;exp_sofc_final;;02.01.2026;6.004.383.185.569.160;2026-03-30 11h51.26.439313 +0200
;44;0;44;;;;None;None;;;;;;;;;;;;;44;0;44;0;10.360.211.193.999.200;;;;;;;;;;;;;;;;clips/clip_hund_27_nosub_1.mp4;audios/clip_hund_27_nosub_1.mp3;audiovisual;[];None;None;;;;;;202;B;2026-03-30_11h51.24.960;exp_sofc_final;;02.01.2026;6.004.383.185.569.160;2026-03-30 11h51.26.439313 +0200
;45;0;45;;;;None;None;;;;;;;;;;;;;45;0;45;0;10.469.383.451.999.100;;;;;;;;;;;;;;;;clips/clip_weißt_07_sub_1.mp4;audios/silence.mp3;visual;[4.4734572996385396];None;None;;;;;;202;B;2026-03-30_11h51.24.960;exp_sofc_final;;02.01.2026;6.004.383.185.569.160;2026-03-30 11h51.26.439313 +0200
;46;0;46;;;;None;None;;;;;;;;;;;;;46;0;46;0;1.057.527.009.899.720;;;;;;;;;;;;;;;;clips/clip_hund_21_nosub_1.mp4;audios/clip_hund_21_nosub_1.mp3;audiovisual;[6.463233899790794];None;None;;;;;;202;B;2026-03-30_11h51.24.960;exp_sofc_final;;02.01.2026;6.004.383.185.569.160;2026-03-30 11h51.26.439313 +0200
;47;0;47;;;;None;None;;;;;;;;;;;;;47;0;47;0;10.683.335.830.997.600;;;;;;;;;;;;;;;;clips/clip_wurst_30_nosub_1.mp4;audios/silence.mp3;visual;[];None;None;;;;;;202;B;2026-03-30_11h51.24.960;exp_sofc_final;;02.01.2026;6.004.383.185.569.160;2026-03-30 11h51.26.439313 +0200
;48;0;48;;;;None;None;;;;;;;;;;;;;48;0;48;0;10.791.631.352.999.200;;;;;;;;;;;;;;;;clips/clip_holo_11_sub_2.mp4;audios/silence.mp3;visual;[9.907440199982375];None;None;;;;;;202;B;2026-03-30_11h51.24.960;exp_sofc_final;;02.01.2026;6.004.383.185.569.160;2026-03-30 11h51.26.439313 +0200
;49;0;49;;;;None;None;;;;;;;;;;;;;49;0;49;0;10.896.709.533.999.600;;;;;;;;;;;;;;;;clips/clip_hund_07_sub_1.mp4;audios/clip_hund_07_sub_1.mp3;audiovisual;[8.237338400445879];None;None;;;;;;202;B;2026-03-30_11h51.24.960;exp_sofc_final;;02.01.2026;6.004.383.185.569.160;2026-03-30 11h51.26.439313 +0200
;50;0;50;;;;None;None;;;;;;;;;;;;;50;0;50;0;11.021.120.734.000.500;;;;;;;;;;;;;;;;clips/clip_wurst_03_sub_1.mp4;audios/silence.mp3;visual;[4.655867699999362];None;None;;;;;;202;B;2026-03-30_11h51.24.960;exp_sofc_final;;02.01.2026;6.004.383.185.569.160;2026-03-30 11h51.26.439313 +0200
;51;0;51;;;;None;None;;;;;;;;;;;;;51;0;51;0;11.149.475.261.000.900;;;;;;;;;;;;;;;;clips/clip_wurst_19_nosub_0.mp4;audios/clip_wurst_19_nosub_0.mp3;audiovisual;[];None;None;;;;;;202;B;2026-03-30_11h51.24.960;exp_sofc_final;;02.01.2026;6.004.383.185.569.160;2026-03-30 11h51.26.439313 +0200
;52;0;52;;;;None;None;;;;;;;;;;;;;52;0;52;0;11.267.657.360.997.900;;;;;;;;;;;;;;;;clips/clip_claude_15_sub_0.mp4;audios/clip_claude_15_sub_0.mp3;audiovisual;[];None;None;;;;;;202;B;2026-03-30_11h51.24.960;exp_sofc_final;;02.01.2026;6.004.383.185.569.160;2026-03-30 11h51.26.439313 +0200
;53;0;53;;;;None;None;;;;;;;;;;;;;53;0;53;0;11.395.961.966.998.800;;;;;;;;;;;;;;;;clips/clip_weißt_29_sub_1.mp4;audios/clip_weißt_29_sub_1.mp3;audiovisual;[7.1736917002126575];None;None;;;;;;202;B;2026-03-30_11h51.24.960;exp_sofc_final;;02.01.2026;6.004.383.185.569.160;2026-03-30 11h51.26.439313 +0200
;54;0;54;;;;None;None;;;;;;;;;;;;;54;0;54;0;11.520.247.106.999.100;;;;;;;;;;;;;;;;clips/clip_claude_29_nosub_0.mp4;audios/silence.mp3;visual;[];None;None;;;;;;202;B;2026-03-30_11h51.24.960;exp_sofc_final;;02.01.2026;6.004.383.185.569.160;2026-03-30 11h51.26.439313 +0200
;55;0;55;;;;None;None;;;;;;;;;;;;;55;0;55;0;11.628.808.542.001.000;;;;;;;;;;;;;;;;clips/clip_dampf_03_sub_1.mp4;audios/clip_dampf_03_sub_1.mp3;audiovisual;[7.76763779995963];None;None;;;;;;202;B;2026-03-30_11h51.24.960;exp_sofc_final;;02.01.2026;6.004.383.185.569.160;2026-03-30 11h51.26.439313 +0200
;56;0;56;;;;None;None;;;;;;;;;;;;;56;0;56;0;11.713.304.694.998.000;;;;;;;;;;;;;;;;clips/clip_herz_04_sub_0.mp4;audios/silence.mp3;visual;[9.847928100265563];None;None;;;;;;202;B;2026-03-30_11h51.24.960;exp_sofc_final;;02.01.2026;6.004.383.185.569.160;2026-03-30 11h51.26.439313 +0200
;57;0;57;;;;None;None;;;;;;;;;;;;;57;0;57;0;11.832.442.854.000.200;;;;;;;;;;;;;;;;clips/clip_hund_01_sub_0.mp4;audios/clip_hund_01_sub_0.mp3;audiovisual;[];None;None;;;;;;202;B;2026-03-30_11h51.24.960;exp_sofc_final;;02.01.2026;6.004.383.185.569.160;2026-03-30 11h51.26.439313 +0200
;58;0;58;;;;None;None;;;;;;;;;;;;;58;0;58;0;11.956.318.930.000.900;;;;;;;;;;;;;;;;clips/clip_holo_01_nosub_1.mp4;audios/silence.mp3;visual;[4.746154699940234];None;None;;;;;;202;B;2026-03-30_11h51.24.960;exp_sofc_final;;02.01.2026;6.004.383.185.569.160;2026-03-30 11h51.26.439313 +0200
;59;0;59;;;;None;space;;;6.580.960.449.995.470;None;;;;;;;;;59;0;59;0;1.205.596.059.099.770;;;;;;;;;;;;;;;;clips/clip_wurst_27_nosub_1.mp4;audios/clip_wurst_27_nosub_1.mp3;audiovisual;[6.418097500223666];None;space;;;;6.580.960.449.995.470;None;202;B;2026-03-30_11h51.24.960;exp_sofc_final;;02.01.2026;6.004.383.185.569.160;2026-03-30 11h51.26.439313 +0200
;60;0;60;;;;None;None;;;;;;;;;;;;;60;0;60;0;12.820.332.092.000.100;;;;;;;;;;;;;;;;clips/clip_herz_16_sub_0.mp4;audios/silence.mp3;visual;[];None;None;;;;;;202;B;2026-03-30_11h51.24.960;exp_sofc_final;;02.01.2026;6.004.383.185.569.160;2026-03-30 11h51.26.439313 +0200
;61;0;61;;;;None;None;;;;;;;;;;;;;61;0;61;0;1.291.896.513.799.670;;;;;;;;;;;;;;;;clips/clip_wurst_35_nosub_0.mp4;audios/clip_wurst_35_nosub_0.mp3;audiovisual;[];None;None;;;;;;202;B;2026-03-30_11h51.24.960;exp_sofc_final;;02.01.2026;6.004.383.185.569.160;2026-03-30 11h51.26.439313 +0200
;62;0;62;;;;None;None;;;;;;;;;;;;;62;0;62;0;13.019.905.685.000.100;;;;;;;;;;;;;;;;clips/clip_hund_24_nosub_1.mp4;audios/silence.mp3;visual;[8.090171599760652];None;None;;;;;;202;B;2026-03-30_11h51.24.960;exp_sofc_final;;02.01.2026;6.004.383.185.569.160;2026-03-30 11h51.26.439313 +0200
;63;0;63;;;;None;None;;;;;;;;;;;;;63;0;63;0;13.148.745.651.999.400;;;;;;;;;;;;;;;;clips/clip_herz_01_sub_1.mp4;audios/clip_herz_01_sub_1.mp3;audiovisual;[6.634428800083697];None;None;;;;;;202;B;2026-03-30_11h51.24.960;exp_sofc_final;;02.01.2026;6.004.383.185.569.160;2026-03-30 11h51.26.439313 +0200
;64;0;64;;;;None;None;;;;;;;;;;;;;64;0;64;0;13.263.014.807.999.100;;;;;;;;;;;;;;;;clips/clip_holo_14_nosub_0.mp4;audios/clip_holo_14_nosub_0.mp3;audiovisual;[];None;None;;;;;;202;B;2026-03-30_11h51.24.960;exp_sofc_final;;02.01.2026;6.004.383.185.569.160;2026-03-30 11h51.26.439313 +0200
;65;0;65;;;;None;None;;;;;;;;;;;;;65;0;65;0;13.371.437.106.998.600;;;;;;;;;;;;;;;;clips/clip_claude_23_sub_0.mp4;audios/clip_claude_23_sub_0.mp3;audiovisual;[];None;None;;;;;;202;B;2026-03-30_11h51.24.960;exp_sofc_final;;02.01.2026;6.004.383.185.569.160;2026-03-30 11h51.26.439313 +0200
;66;0;66;;;;None;None;;;;;;;;;;;;;66;0;66;0;13.501.281.463.997.400;;;;;;;;;;;;;;;;clips/clip_claude_17_nosub_1.mp4;audios/clip_claude_17_nosub_1.mp3;audiovisual;[10.61762240016833];None;None;;;;;;202;B;2026-03-30_11h51.24.960;exp_sofc_final;;02.01.2026;6.004.383.185.569.160;2026-03-30 11h51.26.439313 +0200
;67;0;67;;;;None;None;;;;;;;;;;;;;67;0;67;0;13.624.581.426.996.700;;;;;;;;;;;;;;;;clips/clip_lied_16_sub_2.mp4;audios/silence.mp3;visual;[4.2848395998589694, 6.552448200061917];None;None;;;;;;202;B;2026-03-30_11h51.24.960;exp_sofc_final;;02.01.2026;6.004.383.185.569.160;2026-03-30 11h51.26.439313 +0200
;68;0;68;;;;None;None;;;;;;;;;;;;;68;0;68;0;13.739.300.028.998.400;;;;;;;;;;;;;;;;clips/clip_hund_04_nosub_0.mp4;audios/clip_hund_04_nosub_0.mp3;audiovisual;[];None;None;;;;;;202;B;2026-03-30_11h51.24.960;exp_sofc_final;;02.01.2026;6.004.383.185.569.160;2026-03-30 11h51.26.439313 +0200
;69;0;69;;;;1;None;4.129.326.300.229.870;None;;;;;;;;;;;69;0;69;0;13.842.345.316.996.700;;;;;;;;;;;;;;;;clips/clip_lied_06_nosub_1.mp4;audios/clip_lied_06_nosub_1.mp3;audiovisual;[];1;None;1;4.129.326.300.229.870;None;;;202;B;2026-03-30_11h51.24.960;exp_sofc_final;;02.01.2026;6.004.383.185.569.160;2026-03-30 11h51.26.439313 +0200
;70;0;70;;;;None;None;;;;;;;;;;;;;70;0;70;0;14.018.442.370.998.600;;;;;;;;;;;;;;;;clips/clip_hund_11_sub_1.mp4;audios/clip_hund_11_sub_1.mp3;audiovisual;[9.041868799831718];None;None;;;;;;202;B;2026-03-30_11h51.24.960;exp_sofc_final;;02.01.2026;6.004.383.185.569.160;2026-03-30 11h51.26.439313 +0200
;71;0;71;;;;None;None;;;;;;;;;;;;;71;0;71;0;14.123.924.716.999.700;;;;;;;;;;;;;;;;clips/clip_claude_19_sub_0.mp4;audios/clip_claude_19_sub_0.mp3;audiovisual;[];None;None;;;;;;202;B;2026-03-30_11h51.24.960;exp_sofc_final;;02.01.2026;6.004.383.185.569.160;2026-03-30 11h51.26.439313 +0200
;72;0;72;;;;None;None;;;;;;;;;;;;;72;0;72;0;1.423.607.968.099.880;;;;;;;;;;;;;;;;clips/clip_hund_19_sub_0.mp4;audios/clip_hund_19_sub_0.mp3;audiovisual;[];None;None;;;;;;202;B;2026-03-30_11h51.24.960;exp_sofc_final;;02.01.2026;6.004.383.185.569.160;2026-03-30 11h51.26.439313 +0200
;73;0;73;;;;None;None;;;;;;;;;;;;;73;0;73;0;14.357.592.585.999.500;;;;;;;;;;;;;;;;clips/clip_lied_22_nosub_1.mp4;audios/silence.mp3;visual;[8.014859599992633];None;None;;;;;;202;B;2026-03-30_11h51.24.960;exp_sofc_final;;02.01.2026;6.004.383.185.569.160;2026-03-30 11h51.26.439313 +0200
;74;0;74;;;;None;None;;;;;;;;;;;;;74;0;74;0;14.470.927.523.998.500;;;;;;;;;;;;;;;;clips/clip_dampf_06_sub_2.mp4;audios/silence.mp3;visual;[];None;None;;;;;;202;B;2026-03-30_11h51.24.960;exp_sofc_final;;02.01.2026;6.004.383.185.569.160;2026-03-30 11h51.26.439313 +0200
;75;0;75;;;;None;None;;;;;;;;;;;;;75;0;75;0;145.697.893.569.991;;;;;;;;;;;;;;;;clips/clip_claude_25_nosub_0.mp4;audios/clip_claude_25_nosub_0.mp3;audiovisual;[];None;None;;;;;;202;B;2026-03-30_11h51.24.960;exp_sofc_final;;02.01.2026;6.004.383.185.569.160;2026-03-30 11h51.26.439313 +0200
;76;0;76;;;;None;None;;;;;;;;;;;;;76;0;76;0;1.468.023.622.599.890;;;;;;;;;;;;;;;;clips/clip_hund_20_nosub_0.mp4;audios/silence.mp3;visual;[];None;None;;;;;;202;B;2026-03-30_11h51.24.960;exp_sofc_final;;02.01.2026;6.004.383.185.569.160;2026-03-30 11h51.26.439313 +0200
;77;0;77;;;;1;None;20.309.602.399.822.300;None;;;;;;;;;;;77;0;77;0;14.804.057.768.997.700;;;;;;;;;;;;;;;;clips/clip_hund_09_nosub_2.mp4;audios/clip_hund_09_nosub_2.mp3;audiovisual;[7.041398799978197, 10.628368000034243];1;None;1;20.309.602.399.822.300;None;;;202;B;2026-03-30_11h51.24.960;exp_sofc_final;;02.01.2026;6.004.383.185.569.160;2026-03-30 11h51.26.439313 +0200
;78;0;78;;;;None;None;;;;;;;;;;;;;78;0;78;0;15.131.390.252.998.000;;;;;;;;;;;;;;;;clips/clip_hund_30_sub_0.mp4;audios/clip_hund_30_sub_0.mp3;audiovisual;[10.614920100197196];None;None;;;;;;202;B;2026-03-30_11h51.24.960;exp_sofc_final;;02.01.2026;6.004.383.185.569.160;2026-03-30 11h51.26.439313 +0200
;79;0;79;;;;None;None;;;;;;;;;;;;;79;0;79;0;15.259.428.829.997.700;;;;;;;;;;;;;;;;clips/clip_dampf_05_nosub_2.mp4;audios/clip_dampf_05_nosub_2.mp3;audiovisual;[3.8795541003346443, 9.343973000068218];None;None;;;;;;202;B;2026-03-30_11h51.24.960;exp_sofc_final;;02.01.2026;6.004.383.185.569.160;2026-03-30 11h51.26.439313 +0200
;80;0;80;;;;None;None;;;;;;;;;;;;;80;0;80;0;15.354.864.248.000.000;;;;;;;;;;;;;;;;clips/clip_lied_03_sub_1.mp4;audios/silence.mp3;visual;[4.601984099950641];None;None;;;;;;202;B;2026-03-30_11h51.24.960;exp_sofc_final;;02.01.2026;6.004.383.185.569.160;2026-03-30 11h51.26.439313 +0200
;81;0;81;;;;None;None;;;;;;;;;;;;;81;0;81;0;15.468.178.675.998.900;;;;;;;;;;;;;;;;clips/clip_lied_05_nosub_0.mp4;audios/silence.mp3;visual;[];None;None;;;;;;202;B;2026-03-30_11h51.24.960;exp_sofc_final;;02.01.2026;6.004.383.185.569.160;2026-03-30 11h51.26.439313 +0200
;82;0;82;;;;1;None;8.762.034.199.666.230;None;;;;;;;;;;;82;0;82;0;15.571.156.731.997.600;;;;;;;;;;;;;;;;clips/clip_claude_13_nosub_0.mp4;audios/clip_claude_13_nosub_0.mp3;audiovisual;[];1;None;3;8.762.034.199.666.230;None;;;202;B;2026-03-30_11h51.24.960;exp_sofc_final;;02.01.2026;6.004.383.185.569.160;2026-03-30 11h51.26.439313 +0200
;83;0;83;;;;None;None;;;;;;;;;;;;;83;0;83;0;1.575.869.659.199.840;;;;;;;;;;;;;;;;clips/clip_wurst_05_nosub_0.mp4;audios/silence.mp3;visual;[];None;None;;;;;;202;B;2026-03-30_11h51.24.960;exp_sofc_final;;02.01.2026;6.004.383.185.569.160;2026-03-30 11h51.26.439313 +0200
;84;0;84;;;;None;None;;;;;;;;;;;;;84;0;84;0;1.585.415.414.399.930;;;;;;;;;;;;;;;;clips/clip_lied_10_nosub_1.mp4;audios/clip_lied_10_nosub_1.mp3;audiovisual;[5.574559000320733];None;None;;;;;;202;B;2026-03-30_11h51.24.960;exp_sofc_final;;02.01.2026;6.004.383.185.569.160;2026-03-30 11h51.26.439313 +0200
;85;0;85;;;;3;None;70.381.641.001.440.500;None;;;;;;;;;;;85;0;85;0;1.597.720.295.299.770;;;;;;;;;;;;;;;;clips/clip_holo_13_nosub_1.mp4;audios/silence.mp3;visual;[4.399240100290626];3;None;3;70.381.641.001.440.500;None;;;202;B;2026-03-30_11h51.24.960;exp_sofc_final;;02.01.2026;6.004.383.185.569.160;2026-03-30 11h51.26.439313 +0200
;86;0;86;;;;1;None;3.722.982.000.093.900;None;;;;;;;;;;;86;0;86;0;16.174.769.660.998.100;;;;;;;;;;;;;;;;clips/clip_claude_21_nosub_1.mp4;audios/clip_claude_21_nosub_1.mp3;audiovisual;[9.76761220023036];1;None;1;3.722.982.000.093.900;None;;;202;B;2026-03-30_11h51.24.960;exp_sofc_final;;02.01.2026;6.004.383.185.569.160;2026-03-30 11h51.26.439313 +0200
;87;0;87;;;;None;None;;;;;;;;;;;;;87;0;87;0;1.634.296.876.899.890;;;;;;;;;;;;;;;;clips/clip_hund_16_nosub_1.mp4;audios/silence.mp3;visual;[];None;None;;;;;;202;B;2026-03-30_11h51.24.960;exp_sofc_final;;02.01.2026;6.004.383.185.569.160;2026-03-30 11h51.26.439313 +0200
;88;0;88;;;;None;None;;;;;;;;;;;;;88;0;88;0;16.459.743.352.998.000;;;;;;;;;;;;;;;;clips/clip_lied_07_sub_1.mp4;audios/silence.mp3;visual;[4.429867299739271];None;None;;;;;;202;B;2026-03-30_11h51.24.960;exp_sofc_final;;02.01.2026;6.004.383.185.569.160;2026-03-30 11h51.26.439313 +0200
;89;0;89;;;;None;None;;;;;;;;;;;;;89;0;89;0;16.558.602.342.000.200;;;;;;;;;;;;;;;;clips/clip_holo_21_nosub_1.mp4;audios/silence.mp3;visual;[4.4181021000258625];None;None;;;;;;202;B;2026-03-30_11h51.24.960;exp_sofc_final;;02.01.2026;6.004.383.185.569.160;2026-03-30 11h51.26.439313 +0200
;90;0;90;;;;None;None;;;;;;;;;;;;;90;0;90;0;16.669.097.184.999.800;;;;;;;;;;;;;;;;clips/clip_holo_12_sub_1.mp4;audios/clip_holo_12_sub_1.mp3;audiovisual;[8.811955000273883];None;None;;;;;;202;B;2026-03-30_11h51.24.960;exp_sofc_final;;02.01.2026;6.004.383.185.569.160;2026-03-30 11h51.26.439313 +0200
;91;0;91;;;;None;None;;;;;;;;;;;;;91;0;91;0;16.777.251.797.998.300;;;;;;;;;;;;;;;;clips/clip_herz_14_nosub_0.mp4;audios/silence.mp3;visual;[];None;None;;;;;;202;B;2026-03-30_11h51.24.960;exp_sofc_final;;02.01.2026;6.004.383.185.569.160;2026-03-30 11h51.26.439313 +0200
;92;0;92;;;;2;None;39.244.217.998.348.100;None;;;;;;;;;;;92;0;92;0;1.689.111.182.099.670;;;;;;;;;;;;;;;;clips/clip_hund_17_nosub_1.mp4;audios/clip_hund_17_nosub_1.mp3;audiovisual;[10.409437899943441];2;None;2;39.244.217.998.348.100;None;;;202;B;2026-03-30_11h51.24.960;exp_sofc_final;;02.01.2026;6.004.383.185.569.160;2026-03-30 11h51.26.439313 +0200
;93;0;93;;;;4;None;39.608.123.996.295.000;None;;;;;;;;;;;93;0;93;0;1.706.150.620.599.740;;;;;;;;;;;;;;;;clips/clip_holo_26_nosub_2.mp4;audios/silence.mp3;visual;[6.424583800137043, 8.705509799998254];4;None;4;39.608.123.996.295.000;None;;;202;B;2026-03-30_11h51.24.960;exp_sofc_final;;02.01.2026;6.004.383.185.569.160;2026-03-30 11h51.26.439313 +0200
;94;0;94;;;;1;None;3.822.669.700.253.750;None;;;;;;;;;;;94;0;94;0;17.201.956.030.000.000;;;;;;;;;;;;;;;;clips/clip_herz_13_sub_0.mp4;audios/clip_herz_13_sub_0.mp3;audiovisual;[9.172506200149655];1;None;1;3.822.669.700.253.750;None;;;202;B;2026-03-30_11h51.24.960;exp_sofc_final;;02.01.2026;6.004.383.185.569.160;2026-03-30 11h51.26.439313 +0200
;95;0;95;;;;None;None;;;;;;;;;;;;;95;0;95;0;17.360.766.835.999.600;;;;;;;;;;;;;;;;clips/clip_holo_27_nosub_1.mp4;audios/clip_holo_27_nosub_1.mp3;audiovisual;[5.315235099755228];None;None;;;;;;202;B;2026-03-30_11h51.24.960;exp_sofc_final;;02.01.2026;6.004.383.185.569.160;2026-03-30 11h51.26.439313 +0200
;96;0;96;;;;None;None;;;;;;;;;;;;;96;0;96;0;17.468.499.758.997.900;;;;;;;;;;;;;;;;clips/clip_claude_22_sub_2.mp4;audios/silence.mp3;visual;[8.095043699722737];None;None;;;;;;202;B;2026-03-30_11h51.24.960;exp_sofc_final;;02.01.2026;6.004.383.185.569.160;2026-03-30 11h51.26.439313 +0200
;97;0;97;;;;None;None;;;;;;;;;;;;;97;0;97;0;17.584.456.834.997.900;;;;;;;;;;;;;;;;clips/clip_hund_03_nosub_1.mp4;audios/silence.mp3;visual;[6.529502199962735];None;None;;;;;;202;B;2026-03-30_11h51.24.960;exp_sofc_final;;02.01.2026;6.004.383.185.569.160;2026-03-30 11h51.26.439313 +0200
;98;0;98;;;;None;None;;;;;;;;;;;;;98;0;98;0;17.712.103.113.001.200;;;;;;;;;;;;;;;;clips/clip_wurst_17_sub_0.mp4;audios/clip_wurst_17_sub_0.mp3;audiovisual;[];None;None;;;;;;202;B;2026-03-30_11h51.24.960;exp_sofc_final;;02.01.2026;6.004.383.185.569.160;2026-03-30 11h51.26.439313 +0200
;99;0;99;;;;None;None;;;;;;;;;;;;;99;0;99;0;178.005.381.379.975;;;;;;;;;;;;;;;;clips/clip_hund_13_nosub_1.mp4;audios/clip_hund_13_nosub_1.mp3;audiovisual;[10.791009299922734];None;None;;;;;;202;B;2026-03-30_11h51.24.960;exp_sofc_final;;02.01.2026;6.004.383.185.569.160;2026-03-30 11h51.26.439313 +0200
;100;0;100;;;;None;None;;;;;;;;;;;;;100;0;100;0;1.792.691.646.100.020;;;;;;;;;;;;;;;;clips/clip_wurst_32_sub_1.mp4;audios/silence.mp3;visual;[];None;None;;;;;;202;B;2026-03-30_11h51.24.960;exp_sofc_final;;02.01.2026;6.004.383.185.569.160;2026-03-30 11h51.26.439313 +0200
;101;0;101;;;;3;None;4.028.086.599.893.860;None;;;;;;;;;;;101;0;101;0;18.043.611.297.998.500;;;;;;;;;;;;;;;;clips/clip_holo_09_nosub_2.mp4;audios/silence.mp3;visual;[];3;None;3;4.028.086.599.893.860;None;;;202;B;2026-03-30_11h51.24.960;exp_sofc_final;;02.01.2026;6.004.383.185.569.160;2026-03-30 11h51.26.439313 +0200
;102;0;102;;;;None;None;;;;;;;;;;;;;102;0;102;0;18.208.944.708.998.300;;;;;;;;;;;;;;;;clips/clip_wurst_15_nosub_2.mp4;audios/clip_wurst_15_nosub_2.mp3;audiovisual;[6.091760799754411, 7.87238710001111];None;None;;;;;;202;B;2026-03-30_11h51.24.960;exp_sofc_final;;02.01.2026;6.004.383.185.569.160;2026-03-30 11h51.26.439313 +0200
;103;0;103;;;;None;None;;;;;;;;;;;;;103;0;103;0;183.102.263.640.007;;;;;;;;;;;;;;;;clips/clip_herz_12_sub_0.mp4;audios/silence.mp3;visual;[6.5640646000392735];None;None;;;;;;202;B;2026-03-30_11h51.24.960;exp_sofc_final;;02.01.2026;6.004.383.185.569.160;2026-03-30 11h51.26.439313 +0200
;104;0;104;;;;None;None;;;;;;;;;;;;;104;0;104;0;1.840.937.711.799.980;;;;;;;;;;;;;;;;clips/clip_holo_05_nosub_2.mp4;audios/silence.mp3;visual;[7.093981499783695];None;None;;;;;;202;B;2026-03-30_11h51.24.960;exp_sofc_final;;02.01.2026;6.004.383.185.569.160;2026-03-30 11h51.26.439313 +0200
;105;0;105;;;;None;None;;;;;;;;;;;;;105;0;105;0;18.510.242.825.997.900;;;;;;;;;;;;;;;;clips/clip_wurst_01_nosub_0.mp4;audios/clip_wurst_01_nosub_0.mp3;audiovisual;[];None;None;;;;;;202;B;2026-03-30_11h51.24.960;exp_sofc_final;;02.01.2026;6.004.383.185.569.160;2026-03-30 11h51.26.439313 +0200
;106;0;106;;;;None;None;;;;;;;;;;;;;106;0;106;0;18.616.956.285.000.700;;;;;;;;;;;;;;;;clips/clip_herz_07_nosub_2.mp4;audios/clip_herz_07_nosub_2.mp3;audiovisual;[6.05607290007174, 11.485839100088924];None;None;;;;;;202;B;2026-03-30_11h51.24.960;exp_sofc_final;;02.01.2026;6.004.383.185.569.160;2026-03-30 11h51.26.439313 +0200
;107;0;107;;;;None;None;;;;;;;;;;;;;107;0;107;0;18.745.423.558.000.400;;;;;;;;;;;;;;;;clips/clip_claude_05_nosub_2.mp4;audios/clip_claude_05_nosub_2.mp3;audiovisual;[4.52336909994483];None;None;;;;;;202;B;2026-03-30_11h51.24.960;exp_sofc_final;;02.01.2026;6.004.383.185.569.160;2026-03-30 11h51.26.439313 +0200
;108;0;108;;;;None;None;;;;;;;;;;;;;108;0;108;0;18.866.425.450.998.300;;;;;;;;;;;;;;;;clips/clip_hund_29_sub_0.mp4;audios/silence.mp3;visual;[10.571332700084895];None;None;;;;;;202;B;2026-03-30_11h51.24.960;exp_sofc_final;;02.01.2026;6.004.383.185.569.160;2026-03-30 11h51.26.439313 +0200
;109;0;109;;;;None;None;;;;;;;;;;;;;109;0;109;0;18.988.905.619.997.500;;;;;;;;;;;;;;;;clips/clip_wurst_16_sub_0.mp4;audios/silence.mp3;visual;[];None;None;;;;;;202;B;2026-03-30_11h51.24.960;exp_sofc_final;;02.01.2026;6.004.383.185.569.160;2026-03-30 11h51.26.439313 +0200
;110;0;110;;;;None;None;;;;;;;;;;;;;110;0;110;0;1.909.723.401.399.790;;;;;;;;;;;;;;;;clips/clip_holo_28_sub_0.mp4;audios/silence.mp3;visual;[];None;None;;;;;;202;B;2026-03-30_11h51.24.960;exp_sofc_final;;02.01.2026;6.004.383.185.569.160;2026-03-30 11h51.26.439313 +0200
;111;0;111;;;;None;None;;;;;;;;;;;;;111;0;111;0;19.190.823.296.997.600;;;;;;;;;;;;;;;;clips/clip_hund_15_sub_1.mp4;audios/clip_hund_15_sub_1.mp3;audiovisual;[5.875876099802554];None;None;;;;;;202;B;2026-03-30_11h51.24.960;exp_sofc_final;;02.01.2026;6.004.383.185.569.160;2026-03-30 11h51.26.439313 +0200
;112;0;112;;;;None;None;;;;;;;;;;;;;112;0;112;0;19.303.608.657.000.500;;;;;;;;;;;;;;;;clips/clip_herz_06_nosub_2.mp4;audios/silence.mp3;visual;[4.970626899972558, 8.498442099895328];None;None;;;;;;202;B;2026-03-30_11h51.24.960;exp_sofc_final;;02.01.2026;6.004.383.185.569.160;2026-03-30 11h51.26.439313 +0200
;113;0;113;;;;None;None;;;;;;;;;;;;;113;0;113;0;1.941.752.809.099.850;;;;;;;;;;;;;;;;clips/clip_lied_01_nosub_1.mp4;audios/silence.mp3;visual;[5.044044599868357];None;None;;;;;;202;B;2026-03-30_11h51.24.960;exp_sofc_final;;02.01.2026;6.004.383.185.569.160;2026-03-30 11h51.26.439313 +0200
;114;0;114;;;;None;None;;;;;;;;;;;;;114;0;114;0;19.526.313.644.996.800;;;;;;;;;;;;;;;;clips/clip_weißt_27_nosub_1.mp4;audios/clip_weißt_27_nosub_1.mp3;audiovisual;[7.983527900185436];None;None;;;;;;202;B;2026-03-30_11h51.24.960;exp_sofc_final;;02.01.2026;6.004.383.185.569.160;2026-03-30 11h51.26.439313 +0200
;115;0;115;;;;None;None;;;;;;;;;;;;;115;0;115;0;1.963.533.285.500.010;;;;;;;;;;;;;;;;clips/clip_hund_36_sub_2.mp4;audios/clip_hund_36_sub_2.mp3;audiovisual;[4.317198799923062, 7.7485585999675095];None;None;;;;;;202;B;2026-03-30_11h51.24.960;exp_sofc_final;;02.01.2026;6.004.383.185.569.160;2026-03-30 11h51.26.439313 +0200
;116;0;116;;;;None;None;;;;;;;;;;;;;116;0;116;0;1.973.498.255.699.870;;;;;;;;;;;;;;;;clips/clip_wurst_04_sub_2.mp4;audios/clip_wurst_04_sub_2.mp3;audiovisual;[4.728273599874228, 7.3906501000747085];None;None;;;;;;202;B;2026-03-30_11h51.24.960;exp_sofc_final;;02.01.2026;6.004.383.185.569.160;2026-03-30 11h51.26.439313 +0200
;117;0;117;;;;None;None;;;;;;;;;;;;;117;0;117;0;19.859.636.937.999.100;;;;;;;;;;;;;;;;clips/clip_claude_01_nosub_2.mp4;audios/clip_claude_01_nosub_2.mp3;audiovisual;[7.241129199974239, 8.810744899790734];None;None;;;;;;202;B;2026-03-30_11h51.24.960;exp_sofc_final;;02.01.2026;6.004.383.185.569.160;2026-03-30 11h51.26.439313 +0200
;118;0;118;;;;None;None;;;;;;;;;;;;;118;0;118;0;1.997.725.790.800.060;;;;;;;;;;;;;;;;clips/clip_dampf_02_sub_1.mp4;audios/silence.mp3;visual;[4.907263699918985];None;None;;;;;;202;B;2026-03-30_11h51.24.960;exp_sofc_final;;02.01.2026;6.004.383.185.569.160;2026-03-30 11h51.26.439313 +0200
;119;0;119;;;;2;space;61.552.181.001.752.600;None;9.351.220.399.979.500;None;;;;;;;;;119;0;119;0;2.007.907.765.599.890;;;;;;;;;;;;;;;;clips/clip_weißt_22_nosub_0.mp4;audios/clip_weißt_22_nosub_0.mp3;audiovisual;[];2;space;2;61.552.181.001.752.600;None;9.351.220.399.979.500;None;202;B;2026-03-30_11h51.24.960;exp_sofc_final;;02.01.2026;6.004.383.185.569.160;2026-03-30 11h51.26.439313 +0200
;120;0;120;;;;None;None;;;;;;;;;;;;;120;0;120;0;21.195.087.918.001.200;;;;;;;;;;;;;;;;clips/clip_holo_17_nosub_0.mp4;audios/silence.mp3;visual;[];None;None;;;;;;202;B;2026-03-30_11h51.24.960;exp_sofc_final;;02.01.2026;6.004.383.185.569.160;2026-03-30 11h51.26.439313 +0200
;121;0;121;;;;None;None;;;;;;;;;;;;;121;0;121;0;2.130.146.642.100.060;;;;;;;;;;;;;;;;clips/clip_herz_09_sub_0.mp4;audios/clip_herz_09_sub_0.mp3;audiovisual;[];None;None;;;;;;202;B;2026-03-30_11h51.24.960;exp_sofc_final;;02.01.2026;6.004.383.185.569.160;2026-03-30 11h51.26.439313 +0200
;122;0;122;;;;None;None;;;;;;;;;;;;;122;0;122;0;21.425.137.100.000.800;;;;;;;;;;;;;;;;clips/clip_wurst_36_sub_0.mp4;audios/silence.mp3;visual;[];None;None;;;;;;202;B;2026-03-30_11h51.24.960;exp_sofc_final;;02.01.2026;6.004.383.185.569.160;2026-03-30 11h51.26.439313 +0200
;123;0;123;;;;None;None;;;;;;;;;;;;;123;0;123;0;21.532.648.954.000.300;;;;;;;;;;;;;;;;clips/clip_wurst_10_nosub_2.mp4;audios/silence.mp3;visual;[4.876205100212246];None;None;;;;;;202;B;2026-03-30_11h51.24.960;exp_sofc_final;;02.01.2026;6.004.383.185.569.160;2026-03-30 11h51.26.439313 +0200
;124;0;124;;;;None;None;;;;;;;;;;;;;124;0;124;0;2.162.792.314.999.730;;;;;;;;;;;;;;;;clips/clip_wurst_12_sub_0.mp4;audios/silence.mp3;visual;[];None;None;;;;;;202;B;2026-03-30_11h51.24.960;exp_sofc_final;;02.01.2026;6.004.383.185.569.160;2026-03-30 11h51.26.439313 +0200
;125;0;125;;;;None;None;;;;;;;;;;;;;125;0;125;0;21.722.447.707.997.600;;;;;;;;;;;;;;;;clips/clip_hund_12_nosub_1.mp4;audios/silence.mp3;visual;[10.061438099946827];None;None;;;;;;202;B;2026-03-30_11h51.24.960;exp_sofc_final;;02.01.2026;6.004.383.185.569.160;2026-03-30 11h51.26.439313 +0200
;126;0;126;;;;None;None;;;;;;;;;;;;;126;0;126;0;21.843.163.936.999.600;;;;;;;;;;;;;;;;clips/clip_claude_03_sub_1.mp4;audios/clip_claude_03_sub_1.mp3;audiovisual;[5.292293100152165];None;None;;;;;;202;B;2026-03-30_11h51.24.960;exp_sofc_final;;02.01.2026;6.004.383.185.569.160;2026-03-30 11h51.26.439313 +0200
;127;0;127;;;;None;None;;;;;;;;;;;;;127;0;127;0;2.196.638.875.399.710;;;;;;;;;;;;;;;;clips/clip_hund_22_sub_1.mp4;audios/silence.mp3;visual;[];None;None;;;;;;202;B;2026-03-30_11h51.24.960;exp_sofc_final;;02.01.2026;6.004.383.185.569.160;2026-03-30 11h51.26.439313 +0200
;128;0;128;;;;None;None;;;;;;;;;;;;;128;0;128;0;22.075.057.932.999.900;;;;;;;;;;;;;;;;clips/clip_holo_18_nosub_0.mp4;audios/clip_holo_18_nosub_0.mp3;audiovisual;[6.427142600063235, 8.731934200040996];None;None;;;;;;202;B;2026-03-30_11h51.24.960;exp_sofc_final;;02.01.2026;6.004.383.185.569.160;2026-03-30 11h51.26.439313 +0200
;129;0;129;;;;None;None;;;;;;;;;;;;;129;0;129;0;22.202.152.279.997.200;;;;;;;;;;;;;;;;clips/clip_wurst_21_sub_0.mp4;audios/clip_wurst_21_sub_0.mp3;audiovisual;[];None;None;;;;;;202;B;2026-03-30_11h51.24.960;exp_sofc_final;;02.01.2026;6.004.383.185.569.160;2026-03-30 11h51.26.439313 +0200
;130;0;130;;;;None;None;;;;;;;;;;;;;130;0;130;0;22.314.912.672.000.900;;;;;;;;;;;;;;;;clips/clip_wurst_14_nosub_1.mp4;audios/silence.mp3;visual;[8.15591139998287];None;None;;;;;;202;B;2026-03-30_11h51.24.960;exp_sofc_final;;02.01.2026;6.004.383.185.569.160;2026-03-30 11h51.26.439313 +0200
;131;0;131;;;;None;None;;;;;;;;;;;;;131;0;131;0;22.423.416.176.997.100;;;;;;;;;;;;;;;;clips/clip_hund_14_sub_2.mp4;audios/silence.mp3;visual;[5.874344800133258];None;None;;;;;;202;B;2026-03-30_11h51.24.960;exp_sofc_final;;02.01.2026;6.004.383.185.569.160;2026-03-30 11h51.26.439313 +0200
;132;0;132;;;;None;None;;;;;;;;;;;;;132;0;132;0;2.253.041.552.099.860;;;;;;;;;;;;;;;;clips/clip_holo_19_sub_1.mp4;audios/silence.mp3;visual;[6.57147190021351];None;None;;;;;;202;B;2026-03-30_11h51.24.960;exp_sofc_final;;02.01.2026;6.004.383.185.569.160;2026-03-30 11h51.26.439313 +0200
;133;0;133;;;;None;None;;;;;;;;;;;;;133;0;133;0;226.389.068.519.976;;;;;;;;;;;;;;;;clips/clip_lied_09_nosub_1.mp4;audios/silence.mp3;visual;[];None;None;;;;;;202;B;2026-03-30_11h51.24.960;exp_sofc_final;;02.01.2026;6.004.383.185.569.160;2026-03-30 11h51.26.439313 +0200
;134;0;134;;;;None;None;;;;;;;;;;;;;134;0;134;0;2.275.129.471.299.700;;;;;;;;;;;;;;;;clips/clip_claude_04_nosub_2.mp4;audios/silence.mp3;visual;[8.63751420006156];None;None;;;;;;202;B;2026-03-30_11h51.24.960;exp_sofc_final;;02.01.2026;6.004.383.185.569.160;2026-03-30 11h51.26.439313 +0200
;135;0;135;;;;None;None;;;;;;;;;;;;;135;0;135;0;2.284.973.479.199.680;;;;;;;;;;;;;;;;clips/clip_herz_08_sub_0.mp4;audios/silence.mp3;visual;[0.14361249981448054, 5.378157400060445];None;None;;;;;;202;B;2026-03-30_11h51.24.960;exp_sofc_final;;02.01.2026;6.004.383.185.569.160;2026-03-30 11h51.26.439313 +0200
;136;0;136;;;;None;None;;;;;;;;;;;;;136;0;136;0;2.297.869.097.399.990;;;;;;;;;;;;;;;;clips/clip_wurst_07_sub_0.mp4;audios/silence.mp3;visual;[];None;None;;;;;;202;B;2026-03-30_11h51.24.960;exp_sofc_final;;02.01.2026;6.004.383.185.569.160;2026-03-30 11h51.26.439313 +0200
;137;0;137;;;;None;None;;;;;;;;;;;;;137;0;137;0;2.308.717.128.199.990;;;;;;;;;;;;;;;;clips/clip_wurst_31_nosub_1.mp4;audios/clip_wurst_31_nosub_1.mp3;audiovisual;[];None;None;;;;;;202;B;2026-03-30_11h51.24.960;exp_sofc_final;;02.01.2026;6.004.383.185.569.160;2026-03-30 11h51.26.439313 +0200
;138;0;138;;;;None;None;;;;;;;;;;;;;138;0;138;0;23.205.599.881.000.800;;;;;;;;;;;;;;;;clips/clip_dampf_01_nosub_0.mp4;audios/clip_dampf_01_nosub_0.mp3;audiovisual;[];None;None;;;;;;202;B;2026-03-30_11h51.24.960;exp_sofc_final;;02.01.2026;6.004.383.185.569.160;2026-03-30 11h51.26.439313 +0200
;139;0;139;;;;None;None;;;;;;;;;;;;;139;0;139;0;2.330.855.275.799.980;;;;;;;;;;;;;;;;clips/clip_lied_21_sub_2.mp4;audios/clip_lied_21_sub_2.mp3;audiovisual;[5.265812600031495, 10.69842080026865];None;None;;;;;;202;B;2026-03-30_11h51.24.960;exp_sofc_final;;02.01.2026;6.004.383.185.569.160;2026-03-30 11h51.26.439313 +0200
;140;0;140;;;;3;None;29.992.856.001.481.400;None;;;;;;;;;;;140;0;140;0;23.431.741.482.997.300;;;;;;;;;;;;;;;;clips/clip_claude_26_sub_0.mp4;audios/silence.mp3;visual;[4.208388399798423, 6.255405799951404];3;None;3;29.992.856.001.481.400;None;;;202;B;2026-03-30_11h51.24.960;exp_sofc_final;;02.01.2026;6.004.383.185.569.160;2026-03-30 11h51.26.439313 +0200
;141;0;141;;;;2;None;6.445.357.500.109.820;None;;;;;;;;;;;141;0;141;0;23.579.795.953.999.200;;;;;;;;;;;;;;;;clips/clip_wurst_11_nosub_0.mp4;audios/clip_wurst_11_nosub_0.mp3;audiovisual;[];2;None;3;6.445.357.500.109.820;None;;;202;B;2026-03-30_11h51.24.960;exp_sofc_final;;02.01.2026;6.004.383.185.569.160;2026-03-30 11h51.26.439313 +0200
;142;0;142;;;;None;None;;;;;;;;;;;;;142;0;142;0;23.773.116.989.997.200;;;;;;;;;;;;;;;;clips/clip_lied_15_nosub_2.mp4;audios/clip_lied_15_nosub_2.mp3;audiovisual;[3.2992699998430908, 7.121005099732429];None;None;;;;;;202;B;2026-03-30_11h51.24.960;exp_sofc_final;;02.01.2026;6.004.383.185.569.160;2026-03-30 11h51.26.439313 +0200
;143;0;143;;;;None;None;;;;;;;;;;;;;143;0;143;0;23.855.076.737.999.900;;;;;;;;;;;;;;;;clips/clip_claude_06_sub_1.mp4;audios/silence.mp3;visual;[4.260227899998426];None;None;;;;;;202;B;2026-03-30_11h51.24.960;exp_sofc_final;;02.01.2026;6.004.383.185.569.160;2026-03-30 11h51.26.439313 +0200
;144;0;144;;;;None;None;;;;;;;;;;;;;144;0;144;0;23.991.207.886.999.400;;;;;;;;;;;;;;;;clips/clip_holo_22_nosub_1.mp4;audios/clip_holo_22_nosub_1.mp3;audiovisual;[];None;None;;;;;;202;B;2026-03-30_11h51.24.960;exp_sofc_final;;02.01.2026;6.004.383.185.569.160;2026-03-30 11h51.26.439313 +0200
;145;0;145;;;;1;None;3.720.980.499.871.070;None;;;;;;;;;;;145;0;145;0;2.409.648.506.799.710;;;;;;;;;;;;;;;;clips/clip_claude_09_nosub_2.mp4;audios/clip_claude_09_nosub_2.mp3;audiovisual;[4.231765499804169, 8.729501199908555];1;None;1;3.720.980.499.871.070;None;;;202;B;2026-03-30_11h51.24.960;exp_sofc_final;;02.01.2026;6.004.383.185.569.160;2026-03-30 11h51.26.439313 +0200
;146;0;146;;;;None;None;;;;;;;;;;;;;146;0;146;0;24.240.785.276.996.900;;;;;;;;;;;;;;;;clips/clip_wurst_33_sub_0.mp4;audios/clip_wurst_33_sub_0.mp3;audiovisual;[];None;None;;;;;;202;B;2026-03-30_11h51.24.960;exp_sofc_final;;02.01.2026;6.004.383.185.569.160;2026-03-30 11h51.26.439313 +0200
;147;0;147;;;;4;None;4.371.048.599.947.240;None;;;;;;;;;;;147;0;147;0;2.434.596.998.400.050;;;;;;;;;;;;;;;;clips/clip_wurst_34_nosub_2.mp4;audios/silence.mp3;visual;[4.358804600313306, 6.536908800248057];4;None;4;4.371.048.599.947.240;None;;;202;B;2026-03-30_11h51.24.960;exp_sofc_final;;02.01.2026;6.004.383.185.569.160;2026-03-30 11h51.26.439313 +0200
;148;0;148;;;;None;None;;;;;;;;;;;;;148;0;148;0;244.835.687.149.968;;;;;;;;;;;;;;;;clips/clip_herz_10_nosub_0.mp4;audios/silence.mp3;visual;[];None;None;;;;;;202;B;2026-03-30_11h51.24.960;exp_sofc_final;;02.01.2026;6.004.383.185.569.160;2026-03-30 11h51.26.439313 +0200
;149;0;149;;;;None;None;;;;;;;;;;;;;149;0;149;0;2.459.276.181.699.700;;;;;;;;;;;;;;;;clips/clip_weißt_25_sub_1.mp4;audios/clip_weißt_25_sub_1.mp3;audiovisual;[5.589358400087804];None;None;;;;;;202;B;2026-03-30_11h51.24.960;exp_sofc_final;;02.01.2026;6.004.383.185.569.160;2026-03-30 11h51.26.439313 +0200
;150;0;150;;;;None;None;;;;;;;;;;;;;150;0;150;0;24.721.041.771.001.100;;;;;;;;;;;;;;;;clips/clip_hund_23_sub_1.mp4;audios/clip_hund_23_sub_1.mp3;audiovisual;[];None;None;;;;;;202;B;2026-03-30_11h51.24.960;exp_sofc_final;;02.01.2026;6.004.383.185.569.160;2026-03-30 11h51.26.439313 +0200
;151;0;151;;;;2;None;4.011.886.500.287.800;None;;;;;;;;;;;151;0;151;0;24.838.723.681.000.900;;;;;;;;;;;;;;;;clips/clip_claude_07_sub_0.mp4;audios/clip_claude_07_sub_0.mp3;audiovisual;[];2;None;2;4.011.886.500.287.800;None;;;202;B;2026-03-30_11h51.24.960;exp_sofc_final;;02.01.2026;6.004.383.185.569.160;2026-03-30 11h51.26.439313 +0200
;152;0;152;;;;1;None;4.720.577.199.943.360;None;;;;;;;;;;;152;0;152;0;249.876.055.180.002;;;;;;;;;;;;;;;;clips/clip_weißt_06_nosub_0.mp4;audios/clip_weißt_06_nosub_0.mp3;audiovisual;[1.6253586001694202, 6.083267900161445];1;None;1;4.720.577.199.943.360;None;;;202;B;2026-03-30_11h51.24.960;exp_sofc_final;;02.01.2026;6.004.383.185.569.160;2026-03-30 11h51.26.439313 +0200
;153;0;153;;;;None;None;;;;;;;;;;;;;153;0;153;0;25.146.389.484.996.900;;;;;;;;;;;;;;;;clips/clip_weißt_02_sub_0.mp4;audios/silence.mp3;visual;[];None;None;;;;;;202;B;2026-03-30_11h51.24.960;exp_sofc_final;;02.01.2026;6.004.383.185.569.160;2026-03-30 11h51.26.439313 +0200
;154;0;154;;;;None;None;;;;;;;;;;;;;154;0;154;0;25.254.882.506.998.200;;;;;;;;;;;;;;;;clips/clip_claude_12_nosub_0.mp4;audios/silence.mp3;visual;[];None;None;;;;;;202;B;2026-03-30_11h51.24.960;exp_sofc_final;;02.01.2026;6.004.383.185.569.160;2026-03-30 11h51.26.439313 +0200
;155;0;155;;;;None;None;;;;;;;;;;;;;155;0;155;0;25.355.810.153.000.000;;;;;;;;;;;;;;;;clips/clip_herz_03_nosub_2.mp4;audios/clip_herz_03_nosub_2.mp3;audiovisual;[8.913600500207394, 11.365920300129801];None;None;;;;;;202;B;2026-03-30_11h51.24.960;exp_sofc_final;;02.01.2026;6.004.383.185.569.160;2026-03-30 11h51.26.439313 +0200
;156;0;156;;;;None;None;;;;;;;;;;;;;156;0;156;0;25.488.384.769.000.100;;;;;;;;;;;;;;;;clips/clip_herz_11_nosub_0.mp4;audios/clip_herz_11_nosub_0.mp3;audiovisual;[5.530803499743342];None;None;;;;;;202;B;2026-03-30_11h51.24.960;exp_sofc_final;;02.01.2026;6.004.383.185.569.160;2026-03-30 11h51.26.439313 +0200
;157;0;157;;;;1;None;5.713.527.800.049.630;None;;;;;;;;;;;157;0;157;0;2.558.949.653.599.870;;;;;;;;;;;;;;;;clips/clip_lied_19_nosub_1.mp4;audios/clip_lied_19_nosub_1.mp3;audiovisual;[5.0455205999314785];1;None;1;5.713.527.800.049.630;None;;;202;B;2026-03-30_11h51.24.960;exp_sofc_final;;02.01.2026;6.004.383.185.569.160;2026-03-30 11h51.26.439313 +0200
;158;0;158;;;;None;None;;;;;;;;;;;;;158;0;158;0;25.761.808.738.997.200;;;;;;;;;;;;;;;;clips/clip_weißt_04_nosub_0.mp4;audios/silence.mp3;visual;[];None;None;;;;;;202;B;2026-03-30_11h51.24.960;exp_sofc_final;;02.01.2026;6.004.383.185.569.160;2026-03-30 11h51.26.439313 +0200
;159;0;159;;;;None;None;;;;;;;;;;;;;159;0;159;0;25.871.341.527.998.400;;;;;;;;;;;;;;;;clips/clip_weißt_17_sub_0.mp4;audios/silence.mp3;visual;[];None;None;;;;;;202;B;2026-03-30_11h51.24.960;exp_sofc_final;;02.01.2026;6.004.383.185.569.160;2026-03-30 11h51.26.439313 +0200
;160;0;160;;;;None;None;;;;;;;;;;;;;160;0;160;0;25.994.871.966.000.600;;;;;;;;;;;;;;;;clips/clip_lied_02_nosub_2.mp4;audios/clip_lied_02_nosub_2.mp3;audiovisual;[4.264255099929869, 11.430623500142246];None;None;;;;;;202;B;2026-03-30_11h51.24.960;exp_sofc_final;;02.01.2026;6.004.383.185.569.160;2026-03-30 11h51.26.439313 +0200
;161;0;161;;;;None;None;;;;;;;;;;;;;161;0;161;0;26.116.778.087.001.200;;;;;;;;;;;;;;;;clips/clip_claude_24_nosub_1.mp4;audios/silence.mp3;visual;[6.229188200086355];None;None;;;;;;202;B;2026-03-30_11h51.24.960;exp_sofc_final;;02.01.2026;6.004.383.185.569.160;2026-03-30 11h51.26.439313 +0200
;162;0;162;;;;None;None;;;;;;;;;;;;;162;0;162;0;2.618.713.678.299.910;;;;;;;;;;;;;;;;clips/clip_hund_08_nosub_1.mp4;audios/silence.mp3;visual;[];None;None;;;;;;202;B;2026-03-30_11h51.24.960;exp_sofc_final;;02.01.2026;6.004.383.185.569.160;2026-03-30 11h51.26.439313 +0200
;163;0;163;;;;None;None;;;;;;;;;;;;;163;0;163;0;26.295.741.451.000.700;;;;;;;;;;;;;;;;clips/clip_claude_08_nosub_0.mp4;audios/silence.mp3;visual;[];None;None;;;;;;202;B;2026-03-30_11h51.24.960;exp_sofc_final;;02.01.2026;6.004.383.185.569.160;2026-03-30 11h51.26.439313 +0200
;164;0;164;;;;None;None;;;;;;;;;;;;;164;0;164;0;26.400.882.468.000.000;;;;;;;;;;;;;;;;clips/clip_holo_10_nosub_1.mp4;audios/clip_holo_10_nosub_1.mp3;audiovisual;[6.06518410006538];None;None;;;;;;202;B;2026-03-30_11h51.24.960;exp_sofc_final;;02.01.2026;6.004.383.185.569.160;2026-03-30 11h51.26.439313 +0200
;165;0;165;;;;None;None;;;;;;;;;;;;;165;0;165;0;26.508.260.015.998.900;;;;;;;;;;;;;;;;clips/clip_wurst_24_sub_1.mp4;audios/silence.mp3;visual;[];None;None;;;;;;202;B;2026-03-30_11h51.24.960;exp_sofc_final;;02.01.2026;6.004.383.185.569.160;2026-03-30 11h51.26.439313 +0200
;166;0;166;;;;None;None;;;;;;;;;;;;;166;0;166;0;2.663.018.209.000.110;;;;;;;;;;;;;;;;clips/clip_lied_14_nosub_0.mp4;audios/silence.mp3;visual;[];None;None;;;;;;202;B;2026-03-30_11h51.24.960;exp_sofc_final;;02.01.2026;6.004.383.185.569.160;2026-03-30 11h51.26.439313 +0200
;167;0;167;;;;1;None;47.487.092.996.016.100;None;;;;;;;;;;;167;0;167;0;2.673.579.448.299.940;;;;;;;;;;;;;;;;clips/clip_weißt_12_nosub_1.mp4;audios/clip_weißt_12_nosub_1.mp3;audiovisual;[9.470449699554592];1;None;1;47.487.092.996.016.100;None;;;202;B;2026-03-30_11h51.24.960;exp_sofc_final;;02.01.2026;6.004.383.185.569.160;2026-03-30 11h51.26.439313 +0200
;168;0;168;;;;None;None;;;;;;;;;;;;;168;0;168;0;2.691.104.813.199.950;;;;;;;;;;;;;;;;clips/clip_lied_17_sub_2.mp4;audios/clip_lied_17_sub_2.mp3;audiovisual;[7.165671500377357];None;None;;;;;;202;B;2026-03-30_11h51.24.960;exp_sofc_final;;02.01.2026;6.004.383.185.569.160;2026-03-30 11h51.26.439313 +0200
;169;0;169;;;;None;None;;;;;;;;;;;;;169;0;169;0;27.019.413.199.997.500;;;;;;;;;;;;;;;;clips/clip_holo_03_sub_1.mp4;audios/silence.mp3;visual;[7.541509300004691];None;None;;;;;;202;B;2026-03-30_11h51.24.960;exp_sofc_final;;02.01.2026;6.004.383.185.569.160;2026-03-30 11h51.26.439313 +0200
;170;0;170;;;;None;None;;;;;;;;;;;;;170;0;170;0;27.123.020.887.998.800;;;;;;;;;;;;;;;;clips/clip_holo_20_sub_1.mp4;audios/clip_holo_20_sub_1.mp3;audiovisual;[];None;None;;;;;;202;B;2026-03-30_11h51.24.960;exp_sofc_final;;02.01.2026;6.004.383.185.569.160;2026-03-30 11h51.26.439313 +0200
;171;0;171;;;;None;None;;;;;;;;;;;;;171;0;171;0;2.722.508.458.700.030;;;;;;;;;;;;;;;;clips/clip_hund_05_sub_0.mp4;audios/silence.mp3;visual;[4.278344299644232];None;None;;;;;;202;B;2026-03-30_11h51.24.960;exp_sofc_final;;02.01.2026;6.004.383.185.569.160;2026-03-30 11h51.26.439313 +0200
;172;0;172;;;;None;None;;;;;;;;;;;;;172;0;172;0;2.734.376.554.399.720;;;;;;;;;;;;;;;;clips/clip_herz_17_sub_0.mp4;audios/clip_herz_17_sub_0.mp3;audiovisual;[6.190796799957752];None;None;;;;;;202;B;2026-03-30_11h51.24.960;exp_sofc_final;;02.01.2026;6.004.383.185.569.160;2026-03-30 11h51.26.439313 +0200
;173;0;173;;;;None;None;;;;;;;;;;;;;173;0;173;0;274.337.518.480.001;;;;;;;;;;;;;;;;clips/clip_weißt_30_nosub_2.mp4;audios/silence.mp3;visual;[3.3833340001292527, 11.924240900203586];None;None;;;;;;202;B;2026-03-30_11h51.24.960;exp_sofc_final;;02.01.2026;6.004.383.185.569.160;2026-03-30 11h51.26.439313 +0200
;174;0;174;;;;None;None;;;;;;;;;;;;;174;0;174;0;2.756.242.157.700.000;;;;;;;;;;;;;;;;clips/clip_weißt_01_nosub_1.mp4;audios/clip_weißt_01_nosub_1.mp3;audiovisual;[5.895957800094038];None;None;;;;;;202;B;2026-03-30_11h51.24.960;exp_sofc_final;;02.01.2026;6.004.383.185.569.160;2026-03-30 11h51.26.439313 +0200
;175;0;175;;;;None;None;;;;;;;;;;;;;175;0;175;0;27.680.631.253.998.700;;;;;;;;;;;;;;;;clips/clip_hund_10_sub_0.mp4;audios/silence.mp3;visual;[8.075961099937558];None;None;;;;;;202;B;2026-03-30_11h51.24.960;exp_sofc_final;;02.01.2026;6.004.383.185.569.160;2026-03-30 11h51.26.439313 +0200
;176;0;176;;;;None;None;;;;;;;;;;;;;176;0;176;0;2.778.463.805.399.830;;;;;;;;;;;;;;;;clips/clip_holo_24_sub_2.mp4;audios/clip_holo_24_sub_2.mp3;audiovisual;[7.012967500369996, 10.25051030004397];None;None;;;;;;202;B;2026-03-30_11h51.24.960;exp_sofc_final;;02.01.2026;6.004.383.185.569.160;2026-03-30 11h51.26.439313 +0200
;177;0;177;;;;3;None;474.893.240.025.267;None;;;;;;;;;;;177;0;177;0;27.890.906.579.000.800;;;;;;;;;;;;;;;;clips/clip_weißt_14_sub_2.mp4;audios/clip_weißt_14_sub_2.mp3;audiovisual;[8.161144600249827];3;None;3;474.893.240.025.267;None;;;202;B;2026-03-30_11h51.24.960;exp_sofc_final;;02.01.2026;6.004.383.185.569.160;2026-03-30 11h51.26.439313 +0200
;178;0;178;;;;None;None;;;;;;;;;;;;;178;0;178;0;28.035.623.492.999.000;;;;;;;;;;;;;;;;clips/clip_lied_18_nosub_2.mp4;audios/silence.mp3;visual;[5.841392199974507, 7.74821970006451];None;None;;;;;;202;B;2026-03-30_11h51.24.960;exp_sofc_final;;02.01.2026;6.004.383.185.569.160;2026-03-30 11h51.26.439313 +0200
;179;0;179;;;;3;None;4.656.468.899.920.580;None;;;;;;;;;;;179;0;179;0;28.150.979.442.996.900;;;;;;;;;;;;;;;;clips/clip_claude_14_sub_0.mp4;audios/silence.mp3;visual;[3.336858300026506, 9.129402900114655];3;None;3;4.656.468.899.920.580;None;;;202;B;2026-03-30_11h51.24.960;exp_sofc_final;;02.01.2026;6.004.383.185.569.160;2026-03-30 11h51.26.439313 +0200
;;;;;;;;;;;;;;;;;;;;;;;;;;;;;;;;;;;;;;;;;;;;;;;;;;;;202;B;2026-03-30_11h51.24.960;exp_sofc_final;;02.01.2026;6.004.383.185.569.160;2026-03-30 11h51.26.439313 +0200
