instruction_text;thisN;thisTrialN;thisRepN;prac_attention_resp.keys;prac_attention_resp.rt;prac_attention_resp.duration;exp_atttention_resp.keys;exp_pause_resp.keys;exp_atttention_resp.rt;exp_atttention_resp.duration;exp_pause_resp.rt;exp_pause_resp.duration;instruction_trial.thisRepN;instruction_trial.thisTrialN;instruction_trial.thisN;instruction_trial.thisIndex;practice_trials.thisRepN;practice_trials.thisTrialN;practice_trials.thisN;practice_trials.thisIndex;experiment_trials.thisRepN;experiment_trials.thisTrialN;experiment_trials.thisN;experiment_trials.thisIndex;thisRow.t;notes;piloting;assigned_ls_group;slider_informed_consent.response;Practice_clip_name;Practice_video_used;Practice_audio_used;Practice_modality;Practice_subtitles;Practice_attention_check;Practice_all_cut_rts;practice_trials.prac_attention_resp.keys;Practice_correct_key_required;practice_trials.prac_attention_resp.rt;practice_trials.prac_attention_resp.duration;video_used;audio_used;condition_modality;all_cut_rts;experiment_trials.exp_atttention_resp.keys;experiment_trials.exp_pause_resp.keys;correct_key_required;experiment_trials.exp_atttention_resp.rt;experiment_trials.exp_atttention_resp.duration;experiment_trials.exp_pause_resp.rt;experiment_trials.exp_pause_resp.duration;participant;session;date;expName;expVersion;psychopyVersion;frameRate;expStart
Einverständniserklärung;;;;;;;;;;;;;;;;;;;;;;;;;;;;;;;;;;;;;;;;;;;;;;;;;;;;;;;;;;;
;;;;;;;;;;;;;;;;;;;;;;;;;;;;;;;;;;;;;;;;;;;;;;;;;;;;203;B;2026-03-30_14h44.47.938;exp_sofc_final;;02.01.2026;5.996.789.309.914.360;2026-03-30 14h44.49.635826 +0200
;0;0;0;None;;;;;;;;;;;;;0;0;0;0;;;;;10.439.850.299.991.600;;;;;clip_hund_26_sub_1;clips/clip_hund_26_sub_1.mp4;audios/silence.mp3;visual;sub;False;[];None;;;;;;;;;;;;;;;203;B;2026-03-30_14h44.47.938;exp_sofc_final;;02.01.2026;5.996.789.309.914.360;2026-03-30 14h44.49.635826 +0200
;1;0;1;1;11.972.546.600.271.000;None;;;;;;;;;;;1;0;1;0;;;;;1.143.007.474.001.490;;;;;clip_weißt_18_nosub_1;clips/clip_weißt_18_nosub_1.mp4;audios/silence.mp3;visual;nosub;True;[];1;4;11.972.546.600.271.000;None;;;;;;;;;;;;203;B;2026-03-30_14h44.47.938;exp_sofc_final;;02.01.2026;5.996.789.309.914.360;2026-03-30 14h44.49.635826 +0200
;2;0;2;None;;;;;;;;;;;;;2;0;2;0;;;;;13.931.149.049.988.000;;;;;clip_hund_31_sub_0;clips/clip_hund_31_sub_0.mp4;audios/silence.mp3;visual;sub;False;[];None;;;;;;;;;;;;;;;203;B;2026-03-30_14h44.47.938;exp_sofc_final;;02.01.2026;5.996.789.309.914.360;2026-03-30 14h44.49.635826 +0200
;3;0;3;1;7.020.338.799.804.440;None;;;;;;;;;;;3;0;3;0;;;;;148.608.228.799.887;;;;;clip_weißt_10_nosub_1;clips/clip_weißt_10_nosub_1.mp4;audios/clip_weißt_10_nosub_1.mp3;audiovisual;nosub;True;[0.27868960006162524];1;1;7.020.338.799.804.440;None;;;;;;;;;;;;203;B;2026-03-30_14h44.47.938;exp_sofc_final;;02.01.2026;5.996.789.309.914.360;2026-03-30 14h44.49.635826 +0200
;4;0;4;None;;;;;;;;;;;;;4;0;4;0;;;;;16.760.045.239.981.200;;;;;clip_hund_28_nosub_0;clips/clip_hund_28_nosub_0.mp4;audios/clip_hund_28_nosub_0.mp3;audiovisual;nosub;False;[];None;;;;;;;;;;;;;;;203;B;2026-03-30_14h44.47.938;exp_sofc_final;;02.01.2026;5.996.789.309.914.360;2026-03-30 14h44.49.635826 +0200
;5;0;5;4;9.364.611.099.939.790;None;;;;;;;;;;;5;0;5;0;;;;;1.783.498.660.000.040;;;;;clip_hund_06_nosub_0;clips/clip_hund_06_nosub_0.mp4;audios/clip_hund_06_nosub_0.mp3;audiovisual;nosub;True;[];4;4;9.364.611.099.939.790;None;;;;;;;;;;;;203;B;2026-03-30_14h44.47.938;exp_sofc_final;;02.01.2026;5.996.789.309.914.360;2026-03-30 14h44.49.635826 +0200
;6;0;6;None;;;;;;;;;;;;;6;0;6;0;;;;;19.952.196.840.010.500;;;;;clip_hund_25_sub_1;clips/clip_hund_25_sub_1.mp4;audios/silence.mp3;visual;sub;False;[];None;;;;;;;;;;;;;;;203;B;2026-03-30_14h44.47.938;exp_sofc_final;;02.01.2026;5.996.789.309.914.360;2026-03-30 14h44.49.635826 +0200
;7;0;7;None;;;;;;;;;;;;;7;0;7;0;;;;;20.868.209.150.014.400;;;;;clip_wurst_09_sub_1;clips/clip_wurst_09_sub_1.mp4;audios/clip_wurst_09_sub_1.mp3;audiovisual;sub;False;[];None;;;;;;;;;;;;;;;203;B;2026-03-30_14h44.47.938;exp_sofc_final;;02.01.2026;5.996.789.309.914.360;2026-03-30 14h44.49.635826 +0200
;8;0;8;None;;;;;;;;;;;;;8;0;8;0;;;;;2.208.286.202.000.450;;;;;clip_hund_02_sub_1;clips/clip_hund_02_sub_1.mp4;audios/clip_hund_02_sub_1.mp3;audiovisual;sub;False;[];None;;;;;;;;;;;;;;;203;B;2026-03-30_14h44.47.938;exp_sofc_final;;02.01.2026;5.996.789.309.914.360;2026-03-30 14h44.49.635826 +0200
;9;0;9;None;;;;;;;;;;;;;9;0;9;0;;;;;23.164.097.539.987.400;;;;;clip_weißt_05_sub_0;clips/clip_weißt_05_sub_0.mp4;audios/clip_weißt_05_sub_0.mp3;audiovisual;sub;False;[];None;;;;;;;;;;;;;;;203;B;2026-03-30_14h44.47.938;exp_sofc_final;;02.01.2026;5.996.789.309.914.360;2026-03-30 14h44.49.635826 +0200
;10;0;10;4;5.364.110.899.623.480;None;;;;;;;;;;;10;0;10;0;;;;;24.229.582.160.012.700;;;;;clip_weißt_21_nosub_0;clips/clip_weißt_21_nosub_0.mp4;audios/silence.mp3;visual;nosub;True;[];4;4;5.364.110.899.623.480;None;;;;;;;;;;;;203;B;2026-03-30_14h44.47.938;exp_sofc_final;;02.01.2026;5.996.789.309.914.360;2026-03-30 14h44.49.635826 +0200
;11;0;11;None;;;;;;;;;;;;;11;0;11;0;;;;;2.587.099.342.998.110;;;;;clip_weißt_09_sub_1;clips/clip_weißt_09_sub_1.mp4;audios/silence.mp3;visual;sub;False;[];None;;;;;;;;;;;;;;;203;B;2026-03-30_14h44.47.938;exp_sofc_final;;02.01.2026;5.996.789.309.914.360;2026-03-30 14h44.49.635826 +0200
;;;;;;;;;;;;;;;;;;;;;;;;;;;;;;;;;;;;;;;;;;;;;;;;;;;;203;B;2026-03-30_14h44.47.938;exp_sofc_final;;02.01.2026;5.996.789.309.914.360;2026-03-30 14h44.49.635826 +0200
;0;0;0;;;;None;None;;;;;;;;;;;;;0;0;0;0;2.785.522.706.997.580;;;;;;;;;;;;;;;;clips/clip_wurst_31_sub_1.mp4;audios/clip_wurst_31_sub_1.mp3;audiovisual;[];None;None;;;;;;203;B;2026-03-30_14h44.47.938;exp_sofc_final;;02.01.2026;5.996.789.309.914.360;2026-03-30 14h44.49.635826 +0200
;1;0;1;;;;None;None;;;;;;;;;;;;;1;0;1;0;29.002.478.350.000.400;;;;;;;;;;;;;;;;clips/clip_lied_04_nosub_0.mp4;audios/clip_lied_04_nosub_0.mp3;audiovisual;[];None;None;;;;;;203;B;2026-03-30_14h44.47.938;exp_sofc_final;;02.01.2026;5.996.789.309.914.360;2026-03-30 14h44.49.635826 +0200
;2;0;2;;;;None;None;;;;;;;;;;;;;2;0;2;0;3.018.954.725.000.070;;;;;;;;;;;;;;;;clips/clip_wurst_15_sub_2.mp4;audios/clip_wurst_15_sub_2.mp3;audiovisual;[7.729615999851376];None;None;;;;;;203;B;2026-03-30_14h44.47.938;exp_sofc_final;;02.01.2026;5.996.789.309.914.360;2026-03-30 14h44.49.635826 +0200
;3;0;3;;;;None;None;;;;;;;;;;;;;3;0;3;0;3.121.409.407.998.430;;;;;;;;;;;;;;;;clips/clip_wurst_34_sub_2.mp4;audios/silence.mp3;visual;[];None;None;;;;;;203;B;2026-03-30_14h44.47.938;exp_sofc_final;;02.01.2026;5.996.789.309.914.360;2026-03-30 14h44.49.635826 +0200
;4;0;4;;;;None;None;;;;;;;;;;;;;4;0;4;0;32.149.022.849.975.100;;;;;;;;;;;;;;;;clips/clip_lied_03_nosub_1.mp4;audios/silence.mp3;visual;[];None;None;;;;;;203;B;2026-03-30_14h44.47.938;exp_sofc_final;;02.01.2026;5.996.789.309.914.360;2026-03-30 14h44.49.635826 +0200
;5;0;5;;;;None;None;;;;;;;;;;;;;5;0;5;0;3.329.208.828.997.790;;;;;;;;;;;;;;;;clips/clip_claude_18_nosub_0.mp4;audios/silence.mp3;visual;[];None;None;;;;;;203;B;2026-03-30_14h44.47.938;exp_sofc_final;;02.01.2026;5.996.789.309.914.360;2026-03-30 14h44.49.635826 +0200
;6;0;6;;;;None;None;;;;;;;;;;;;;6;0;6;0;3.428.541.195.001.450;;;;;;;;;;;;;;;;clips/clip_weißt_22_sub_0.mp4;audios/clip_weißt_22_sub_0.mp3;audiovisual;[];None;None;;;;;;203;B;2026-03-30_14h44.47.938;exp_sofc_final;;02.01.2026;5.996.789.309.914.360;2026-03-30 14h44.49.635826 +0200
;7;0;7;;;;3;None;45.991.936.000.064.000;None;;;;;;;;;;;7;0;7;0;3.548.079.550.000.830;;;;;;;;;;;;;;;;clips/clip_holo_13_sub_1.mp4;audios/silence.mp3;visual;[];3;None;3;45.991.936.000.064.000;None;;;203;B;2026-03-30_14h44.47.938;exp_sofc_final;;02.01.2026;5.996.789.309.914.360;2026-03-30 14h44.49.635826 +0200
;8;0;8;;;;None;None;;;;;;;;;;;;;8;0;8;0;37.222.688.979.981.400;;;;;;;;;;;;;;;;clips/clip_holo_07_nosub_0.mp4;audios/silence.mp3;visual;[];None;None;;;;;;203;B;2026-03-30_14h44.47.938;exp_sofc_final;;02.01.2026;5.996.789.309.914.360;2026-03-30 14h44.49.635826 +0200
;9;0;9;;;;None;None;;;;;;;;;;;;;9;0;9;0;3.824.567.884.998.390;;;;;;;;;;;;;;;;clips/clip_claude_09_sub_2.mp4;audios/clip_claude_09_sub_2.mp3;audiovisual;[4.237894000019878];None;None;;;;;;203;B;2026-03-30_14h44.47.938;exp_sofc_final;;02.01.2026;5.996.789.309.914.360;2026-03-30 14h44.49.635826 +0200
;10;0;10;;;;None;None;;;;;;;;;;;;;10;0;10;0;3.935.316.162.998.780;;;;;;;;;;;;;;;;clips/clip_hund_05_nosub_0.mp4;audios/silence.mp3;visual;[];None;None;;;;;;203;B;2026-03-30_14h44.47.938;exp_sofc_final;;02.01.2026;5.996.789.309.914.360;2026-03-30 14h44.49.635826 +0200
;11;0;11;;;;4;None;8.263.765.799.812.970;None;;;;;;;;;;;11;0;11;0;4.054.690.613.001.580;;;;;;;;;;;;;;;;clips/clip_holo_05_sub_2.mp4;audios/silence.mp3;visual;[7.780616099946201];4;None;4;8.263.765.799.812.970;None;;;203;B;2026-03-30_14h44.47.938;exp_sofc_final;;02.01.2026;5.996.789.309.914.360;2026-03-30 14h44.49.635826 +0200
;12;0;12;;;;None;None;;;;;;;;;;;;;12;0;12;0;4.238.750.105.998.470;;;;;;;;;;;;;;;;clips/clip_hund_04_sub_0.mp4;audios/clip_hund_04_sub_0.mp3;audiovisual;[];None;None;;;;;;203;B;2026-03-30_14h44.47.938;exp_sofc_final;;02.01.2026;5.996.789.309.914.360;2026-03-30 14h44.49.635826 +0200
;13;0;13;;;;None;None;;;;;;;;;;;;;13;0;13;0;43.412.821.599.980.800;;;;;;;;;;;;;;;;clips/clip_holo_26_sub_2.mp4;audios/silence.mp3;visual;[8.103497699834406];None;None;;;;;;203;B;2026-03-30_14h44.47.938;exp_sofc_final;;02.01.2026;5.996.789.309.914.360;2026-03-30 14h44.49.635826 +0200
;14;0;14;;;;None;None;;;;;;;;;;;;;14;0;14;0;4.442.207.007.999.530;;;;;;;;;;;;;;;;clips/clip_weißt_29_nosub_1.mp4;audios/clip_weißt_29_nosub_1.mp3;audiovisual;[7.639946799725294];None;None;;;;;;203;B;2026-03-30_14h44.47.938;exp_sofc_final;;02.01.2026;5.996.789.309.914.360;2026-03-30 14h44.49.635826 +0200
;15;0;15;;;;None;None;;;;;;;;;;;;;15;0;15;0;45.666.075.609.996.900;;;;;;;;;;;;;;;;clips/clip_hund_34_sub_1.mp4;audios/clip_hund_34_sub_1.mp3;audiovisual;[9.651766899973154];None;None;;;;;;203;B;2026-03-30_14h44.47.938;exp_sofc_final;;02.01.2026;5.996.789.309.914.360;2026-03-30 14h44.49.635826 +0200
;16;0;16;;;;None;None;;;;;;;;;;;;;16;0;16;0;4.679.343.125.000.590;;;;;;;;;;;;;;;;clips/clip_weißt_08_nosub_0.mp4;audios/clip_weißt_08_nosub_0.mp3;audiovisual;[];None;None;;;;;;203;B;2026-03-30_14h44.47.938;exp_sofc_final;;02.01.2026;5.996.789.309.914.360;2026-03-30 14h44.49.635826 +0200
;17;0;17;;;;None;None;;;;;;;;;;;;;17;0;17;0;4.790.176.634.998.060;;;;;;;;;;;;;;;;clips/clip_holo_20_nosub_1.mp4;audios/clip_holo_20_nosub_1.mp3;audiovisual;[0.3255202998407185];None;None;;;;;;203;B;2026-03-30_14h44.47.938;exp_sofc_final;;02.01.2026;5.996.789.309.914.360;2026-03-30 14h44.49.635826 +0200
;18;0;18;;;;None;None;;;;;;;;;;;;;18;0;18;0;4.892.315.842.998.210;;;;;;;;;;;;;;;;clips/clip_holo_03_nosub_1.mp4;audios/silence.mp3;visual;[7.799853200092912];None;None;;;;;;203;B;2026-03-30_14h44.47.938;exp_sofc_final;;02.01.2026;5.996.789.309.914.360;2026-03-30 14h44.49.635826 +0200
;19;0;19;;;;None;None;;;;;;;;;;;;;19;0;19;0;49.969.322.060.002.000;;;;;;;;;;;;;;;;clips/clip_hund_23_nosub_1.mp4;audios/clip_hund_23_nosub_1.mp3;audiovisual;[];None;None;;;;;;203;B;2026-03-30_14h44.47.938;exp_sofc_final;;02.01.2026;5.996.789.309.914.360;2026-03-30 14h44.49.635826 +0200
;20;0;20;;;;3;None;57.726.183.999.329.800;None;;;;;;;;;;;20;0;20;0;51.150.076.310.010.600;;;;;;;;;;;;;;;;clips/clip_hund_21_sub_1.mp4;audios/clip_hund_21_sub_1.mp3;audiovisual;[6.699013900011778];3;None;4;57.726.183.999.329.800;None;;;203;B;2026-03-30_14h44.47.938;exp_sofc_final;;02.01.2026;5.996.789.309.914.360;2026-03-30 14h44.49.635826 +0200
;21;0;21;;;;4;None;4.568.259.099.964.050;None;;;;;;;;;;;21;0;21;0;5.282.618.402.000.510;;;;;;;;;;;;;;;;clips/clip_herz_08_nosub_0.mp4;audios/silence.mp3;visual;[5.280032400041819, 9.730962300207466];4;None;4;4.568.259.099.964.050;None;;;203;B;2026-03-30_14h44.47.938;exp_sofc_final;;02.01.2026;5.996.789.309.914.360;2026-03-30 14h44.49.635826 +0200
;22;0;22;;;;2;None;36.775.271.999.649.700;None;;;;;;;;;;;22;0;22;0;5.457.008.915.999.900;;;;;;;;;;;;;;;;clips/clip_wurst_30_sub_1.mp4;audios/silence.mp3;visual;[];2;None;2;36.775.271.999.649.700;None;;;203;B;2026-03-30_14h44.47.938;exp_sofc_final;;02.01.2026;5.996.789.309.914.360;2026-03-30 14h44.49.635826 +0200
;23;0;23;;;;None;None;;;;;;;;;;;;;23;0;23;0;5.602.701.757.000.750;;;;;;;;;;;;;;;;clips/clip_weißt_19_nosub_1.mp4;audios/clip_weißt_19_nosub_1.mp3;audiovisual;[];None;None;;;;;;203;B;2026-03-30_14h44.47.938;exp_sofc_final;;02.01.2026;5.996.789.309.914.360;2026-03-30 14h44.49.635826 +0200
;24;0;24;;;;None;None;;;;;;;;;;;;;24;0;24;0;5.711.465.624.999.250;;;;;;;;;;;;;;;;clips/clip_weißt_23_nosub_1.mp4;audios/silence.mp3;visual;[0.23495559999719262, 9.022637499962002];None;None;;;;;;203;B;2026-03-30_14h44.47.938;exp_sofc_final;;02.01.2026;5.996.789.309.914.360;2026-03-30 14h44.49.635826 +0200
;25;0;25;;;;None;None;;;;;;;;;;;;;25;0;25;0;5.834.321.566.000.580;;;;;;;;;;;;;;;;clips/clip_weißt_13_nosub_0.mp4;audios/silence.mp3;visual;[];None;None;;;;;;203;B;2026-03-30_14h44.47.938;exp_sofc_final;;02.01.2026;5.996.789.309.914.360;2026-03-30 14h44.49.635826 +0200
;26;0;26;;;;None;None;;;;;;;;;;;;;26;0;26;0;5.951.374.770.998.950;;;;;;;;;;;;;;;;clips/clip_weißt_30_sub_2.mp4;audios/silence.mp3;visual;[12.114301499910653];None;None;;;;;;203;B;2026-03-30_14h44.47.938;exp_sofc_final;;02.01.2026;5.996.789.309.914.360;2026-03-30 14h44.49.635826 +0200
;27;0;27;;;;None;None;;;;;;;;;;;;;27;0;27;0;6.080.322.122.997.600;;;;;;;;;;;;;;;;clips/clip_hund_13_sub_1.mp4;audios/clip_hund_13_sub_1.mp3;audiovisual;[6.550481999758631];None;None;;;;;;203;B;2026-03-30_14h44.47.938;exp_sofc_final;;02.01.2026;5.996.789.309.914.360;2026-03-30 14h44.49.635826 +0200
;28;0;28;;;;None;None;;;;;;;;;;;;;28;0;28;0;6.206.104.598.999.950;;;;;;;;;;;;;;;;clips/clip_holo_16_nosub_1.mp4;audios/clip_holo_16_nosub_1.mp3;audiovisual;[10.259074099827558];None;None;;;;;;203;B;2026-03-30_14h44.47.938;exp_sofc_final;;02.01.2026;5.996.789.309.914.360;2026-03-30 14h44.49.635826 +0200
;29;0;29;;;;None;None;;;;;;;;;;;;;29;0;29;0;6.335.313.224.000.850;;;;;;;;;;;;;;;;clips/clip_wurst_29_nosub_1.mp4;audios/clip_wurst_29_nosub_1.mp3;audiovisual;[];None;None;;;;;;203;B;2026-03-30_14h44.47.938;exp_sofc_final;;02.01.2026;5.996.789.309.914.360;2026-03-30 14h44.49.635826 +0200
;30;0;30;;;;None;None;;;;;;;;;;;;;30;0;30;0;6.463.136.130.999.770;;;;;;;;;;;;;;;;clips/clip_weißt_28_nosub_1.mp4;audios/silence.mp3;visual;[2.437883199658245, 7.112504899967462];None;None;;;;;;203;B;2026-03-30_14h44.47.938;exp_sofc_final;;02.01.2026;5.996.789.309.914.360;2026-03-30 14h44.49.635826 +0200
;31;0;31;;;;1;None;3.434.553.800.150.750;None;;;;;;;;;;;31;0;31;0;6.572.798.544.000.830;;;;;;;;;;;;;;;;clips/clip_holo_08_nosub_2.mp4;audios/clip_holo_08_nosub_2.mp3;audiovisual;[9.203789399936795];1;None;1;3.434.553.800.150.750;None;;;203;B;2026-03-30_14h44.47.938;exp_sofc_final;;02.01.2026;5.996.789.309.914.360;2026-03-30 14h44.49.635826 +0200
;32;0;32;;;;None;None;;;;;;;;;;;;;32;0;32;0;6.723.354.560.998.260;;;;;;;;;;;;;;;;clips/clip_holo_01_sub_1.mp4;audios/silence.mp3;visual;[];None;None;;;;;;203;B;2026-03-30_14h44.47.938;exp_sofc_final;;02.01.2026;5.996.789.309.914.360;2026-03-30 14h44.49.635826 +0200
;33;0;33;;;;3;None;49.445.013.999.938.900;None;;;;;;;;;;;33;0;33;0;6.823.777.163.997.290;;;;;;;;;;;;;;;;clips/clip_wurst_36_nosub_0.mp4;audios/silence.mp3;visual;[0.438780200202018];3;None;3;49.445.013.999.938.900;None;;;203;B;2026-03-30_14h44.47.938;exp_sofc_final;;02.01.2026;5.996.789.309.914.360;2026-03-30 14h44.49.635826 +0200
;34;0;34;;;;None;None;;;;;;;;;;;;;34;0;34;0;6.981.661.080.997.430;;;;;;;;;;;;;;;;clips/clip_holo_23_nosub_1.mp4;audios/silence.mp3;visual;[];None;None;;;;;;203;B;2026-03-30_14h44.47.938;exp_sofc_final;;02.01.2026;5.996.789.309.914.360;2026-03-30 14h44.49.635826 +0200
;35;0;35;;;;None;None;;;;;;;;;;;;;35;0;35;0;7.089.607.092.998.920;;;;;;;;;;;;;;;;clips/clip_wurst_07_nosub_0.mp4;audios/silence.mp3;visual;[];None;None;;;;;;203;B;2026-03-30_14h44.47.938;exp_sofc_final;;02.01.2026;5.996.789.309.914.360;2026-03-30 14h44.49.635826 +0200
;36;0;36;;;;None;None;;;;;;;;;;;;;36;0;36;0;719.862.384.499.982;;;;;;;;;;;;;;;;clips/clip_lied_11_nosub_1.mp4;audios/silence.mp3;visual;[8.232419000007212];None;None;;;;;;203;B;2026-03-30_14h44.47.938;exp_sofc_final;;02.01.2026;5.996.789.309.914.360;2026-03-30 14h44.49.635826 +0200
;37;0;37;;;;None;None;;;;;;;;;;;;;37;0;37;0;7.317.358.944.998.120;;;;;;;;;;;;;;;;clips/clip_wurst_12_nosub_0.mp4;audios/silence.mp3;visual;[];None;None;;;;;;203;B;2026-03-30_14h44.47.938;exp_sofc_final;;02.01.2026;5.996.789.309.914.360;2026-03-30 14h44.49.635826 +0200
;38;0;38;;;;None;None;;;;;;;;;;;;;38;0;38;0;741.319.119.299.762;;;;;;;;;;;;;;;;clips/clip_hund_30_nosub_0.mp4;audios/clip_hund_30_nosub_0.mp3;audiovisual;[];None;None;;;;;;203;B;2026-03-30_14h44.47.938;exp_sofc_final;;02.01.2026;5.996.789.309.914.360;2026-03-30 14h44.49.635826 +0200
;39;0;39;;;;None;None;;;;;;;;;;;;;39;0;39;0;754.236.012.800.131;;;;;;;;;;;;;;;;clips/clip_claude_17_sub_1.mp4;audios/clip_claude_17_sub_1.mp3;audiovisual;[10.424012300092727];None;None;;;;;;203;B;2026-03-30_14h44.47.938;exp_sofc_final;;02.01.2026;5.996.789.309.914.360;2026-03-30 14h44.49.635826 +0200
;40;0;40;;;;None;None;;;;;;;;;;;;;40;0;40;0;7.665.407.292.000.010;;;;;;;;;;;;;;;;clips/clip_claude_25_sub_0.mp4;audios/clip_claude_25_sub_0.mp3;audiovisual;[];None;None;;;;;;203;B;2026-03-30_14h44.47.938;exp_sofc_final;;02.01.2026;5.996.789.309.914.360;2026-03-30 14h44.49.635826 +0200
;41;0;41;;;;None;None;;;;;;;;;;;;;41;0;41;0;7.776.122.424.001.800;;;;;;;;;;;;;;;;clips/clip_claude_03_nosub_1.mp4;audios/clip_claude_03_nosub_1.mp3;audiovisual;[5.634354999754578];None;None;;;;;;203;B;2026-03-30_14h44.47.938;exp_sofc_final;;02.01.2026;5.996.789.309.914.360;2026-03-30 14h44.49.635826 +0200
;42;0;42;;;;None;None;;;;;;;;;;;;;42;0;42;0;7.899.565.282.999.530;;;;;;;;;;;;;;;;clips/clip_holo_06_sub_2.mp4;audios/clip_holo_06_sub_2.mp3;audiovisual;[5.052790900226682, 8.910323000047356];None;None;;;;;;203;B;2026-03-30_14h44.47.938;exp_sofc_final;;02.01.2026;5.996.789.309.914.360;2026-03-30 14h44.49.635826 +0200
;43;0;43;;;;None;None;;;;;;;;;;;;;43;0;43;0;8.006.168.720.000.420;;;;;;;;;;;;;;;;clips/clip_herz_16_nosub_0.mp4;audios/silence.mp3;visual;[];None;None;;;;;;203;B;2026-03-30_14h44.47.938;exp_sofc_final;;02.01.2026;5.996.789.309.914.360;2026-03-30 14h44.49.635826 +0200
;44;0;44;;;;None;None;;;;;;;;;;;;;44;0;44;0;8.105.828.780.997.540;;;;;;;;;;;;;;;;clips/clip_weißt_14_nosub_2.mp4;audios/clip_weißt_14_nosub_2.mp3;audiovisual;[2.9339072997681797, 8.246181100141257];None;None;;;;;;203;B;2026-03-30_14h44.47.938;exp_sofc_final;;02.01.2026;5.996.789.309.914.360;2026-03-30 14h44.49.635826 +0200
;45;0;45;;;;None;None;;;;;;;;;;;;;45;0;45;0;820.417.852.899.991;;;;;;;;;;;;;;;;clips/clip_herz_11_sub_0.mp4;audios/clip_herz_11_sub_0.mp3;audiovisual;[1.6173159000463784, 5.0921477996744215];None;None;;;;;;203;B;2026-03-30_14h44.47.938;exp_sofc_final;;02.01.2026;5.996.789.309.914.360;2026-03-30 14h44.49.635826 +0200
;46;0;46;;;;None;None;;;;;;;;;;;;;46;0;46;0;8.305.812.309.999.010;;;;;;;;;;;;;;;;clips/clip_wurst_08_nosub_1.mp4;audios/clip_wurst_08_nosub_1.mp3;audiovisual;[5.328487699851394];None;None;;;;;;203;B;2026-03-30_14h44.47.938;exp_sofc_final;;02.01.2026;5.996.789.309.914.360;2026-03-30 14h44.49.635826 +0200
;47;0;47;;;;None;None;;;;;;;;;;;;;47;0;47;0;8.398.961.165.999.060;;;;;;;;;;;;;;;;clips/clip_weißt_11_sub_0.mp4;audios/silence.mp3;visual;[];None;None;;;;;;203;B;2026-03-30_14h44.47.938;exp_sofc_final;;02.01.2026;5.996.789.309.914.360;2026-03-30 14h44.49.635826 +0200
;48;0;48;;;;None;None;;;;;;;;;;;;;48;0;48;0;8.507.649.407.000.280;;;;;;;;;;;;;;;;clips/clip_holo_21_sub_1.mp4;audios/silence.mp3;visual;[5.138556899968535];None;None;;;;;;203;B;2026-03-30_14h44.47.938;exp_sofc_final;;02.01.2026;5.996.789.309.914.360;2026-03-30 14h44.49.635826 +0200
;49;0;49;;;;None;None;;;;;;;;;;;;;49;0;49;0;8.617.799.064.000.130;;;;;;;;;;;;;;;;clips/clip_herz_10_sub_0.mp4;audios/silence.mp3;visual;[];None;None;;;;;;203;B;2026-03-30_14h44.47.938;exp_sofc_final;;02.01.2026;5.996.789.309.914.360;2026-03-30 14h44.49.635826 +0200
;50;0;50;;;;None;None;;;;;;;;;;;;;50;0;50;0;8.726.516.837.999.220;;;;;;;;;;;;;;;;clips/clip_hund_14_nosub_2.mp4;audios/silence.mp3;visual;[5.790224799886346];None;None;;;;;;203;B;2026-03-30_14h44.47.938;exp_sofc_final;;02.01.2026;5.996.789.309.914.360;2026-03-30 14h44.49.635826 +0200
;51;0;51;;;;None;None;;;;;;;;;;;;;51;0;51;0;8.835.993.393.999.520;;;;;;;;;;;;;;;;clips/clip_wurst_27_sub_1.mp4;audios/clip_wurst_27_sub_1.mp3;audiovisual;[6.491390699986368];None;None;;;;;;203;B;2026-03-30_14h44.47.938;exp_sofc_final;;02.01.2026;5.996.789.309.914.360;2026-03-30 14h44.49.635826 +0200
;52;0;52;;;;None;None;;;;;;;;;;;;;52;0;52;0;8.945.874.478.998.590;;;;;;;;;;;;;;;;clips/clip_hund_11_nosub_1.mp4;audios/clip_hund_11_nosub_1.mp3;audiovisual;[6.43112020008266];None;None;;;;;;203;B;2026-03-30_14h44.47.938;exp_sofc_final;;02.01.2026;5.996.789.309.914.360;2026-03-30 14h44.49.635826 +0200
;53;0;53;;;;4;None;11.241.892.999.969.400;None;;;;;;;;;;;53;0;53;0;9.051.024.319.999.850;;;;;;;;;;;;;;;;clips/clip_herz_03_sub_2.mp4;audios/clip_herz_03_sub_2.mp3;audiovisual;[4.447757999878377, 11.365280400030315];4;None;4;11.241.892.999.969.400;None;;;203;B;2026-03-30_14h44.47.938;exp_sofc_final;;02.01.2026;5.996.789.309.914.360;2026-03-30 14h44.49.635826 +0200
;54;0;54;;;;None;None;;;;;;;;;;;;;54;0;54;0;9.297.714.729.001.740;;;;;;;;;;;;;;;;clips/clip_lied_18_sub_2.mp4;audios/silence.mp3;visual;[5.553377900272608, 7.8512054001912475];None;None;;;;;;203;B;2026-03-30_14h44.47.938;exp_sofc_final;;02.01.2026;5.996.789.309.914.360;2026-03-30 14h44.49.635826 +0200
;55;0;55;;;;None;None;;;;;;;;;;;;;55;0;55;0;941.178.790.200.036;;;;;;;;;;;;;;;;clips/clip_weißt_04_sub_0.mp4;audios/silence.mp3;visual;[0.5378205999732018];None;None;;;;;;203;B;2026-03-30_14h44.47.938;exp_sofc_final;;02.01.2026;5.996.789.309.914.360;2026-03-30 14h44.49.635826 +0200
;56;0;56;;;;2;None;7.276.285.899.803.040;None;;;;;;;;;;;56;0;56;0;9.520.951.096.001.080;;;;;;;;;;;;;;;;clips/clip_lied_22_sub_1.mp4;audios/silence.mp3;visual;[0.63691999996081, 6.523530399892479];2;None;2;7.276.285.899.803.040;None;;;203;B;2026-03-30_14h44.47.938;exp_sofc_final;;02.01.2026;5.996.789.309.914.360;2026-03-30 14h44.49.635826 +0200
;57;0;57;;;;2;None;32.342.105.000.279.800;None;;;;;;;;;;;57;0;57;0;970.844.243.499.916;;;;;;;;;;;;;;;;clips/clip_weißt_02_nosub_0.mp4;audios/silence.mp3;visual;[];2;None;2;32.342.105.000.279.800;None;;;203;B;2026-03-30_14h44.47.938;exp_sofc_final;;02.01.2026;5.996.789.309.914.360;2026-03-30 14h44.49.635826 +0200
;58;0;58;;;;None;None;;;;;;;;;;;;;58;0;58;0;9.851.876.805.000.930;;;;;;;;;;;;;;;;clips/clip_holo_09_sub_2.mp4;audios/silence.mp3;visual;[];None;None;;;;;;203;B;2026-03-30_14h44.47.938;exp_sofc_final;;02.01.2026;5.996.789.309.914.360;2026-03-30 14h44.49.635826 +0200
;59;0;59;;;;None;space;;;0.3827802003361285;None;;;;;;;;;59;0;59;0;9.975.397.419.999.350;;;;;;;;;;;;;;;;clips/clip_weißt_16_sub_0.mp4;audios/clip_weißt_16_sub_0.mp3;audiovisual;[];None;space;;;;0.3827802003361285;None;203;B;2026-03-30_14h44.47.938;exp_sofc_final;;02.01.2026;5.996.789.309.914.360;2026-03-30 14h44.49.635826 +0200
;60;0;60;;;;None;None;;;;;;;;;;;;;60;0;60;0;10.092.908.212.998.800;;;;;;;;;;;;;;;;clips/clip_holo_27_sub_1.mp4;audios/clip_holo_27_sub_1.mp3;audiovisual;[5.929271399974823];None;None;;;;;;203;B;2026-03-30_14h44.47.938;exp_sofc_final;;02.01.2026;5.996.789.309.914.360;2026-03-30 14h44.49.635826 +0200
;61;0;61;;;;3;None;8.755.153.500.009.320;None;;;;;;;;;;;61;0;61;0;10.199.923.907.998.000;;;;;;;;;;;;;;;;clips/clip_wurst_01_sub_0.mp4;audios/clip_wurst_01_sub_0.mp3;audiovisual;[];3;None;4;8.755.153.500.009.320;None;;;203;B;2026-03-30_14h44.47.938;exp_sofc_final;;02.01.2026;5.996.789.309.914.360;2026-03-30 14h44.49.635826 +0200
;62;0;62;;;;None;None;;;;;;;;;;;;;62;0;62;0;10.396.026.809.001.300;;;;;;;;;;;;;;;;clips/clip_wurst_23_sub_2.mp4;audios/clip_wurst_23_sub_2.mp3;audiovisual;[3.462169900070876, 7.961064400151372];None;None;;;;;;203;B;2026-03-30_14h44.47.938;exp_sofc_final;;02.01.2026;5.996.789.309.914.360;2026-03-30 14h44.49.635826 +0200
;63;0;63;;;;None;None;;;;;;;;;;;;;63;0;63;0;10.509.076.527.999.700;;;;;;;;;;;;;;;;clips/clip_holo_12_nosub_1.mp4;audios/clip_holo_12_nosub_1.mp3;audiovisual;[8.585432399995625];None;None;;;;;;203;B;2026-03-30_14h44.47.938;exp_sofc_final;;02.01.2026;5.996.789.309.914.360;2026-03-30 14h44.49.635826 +0200
;64;0;64;;;;None;None;;;;;;;;;;;;;64;0;64;0;10.617.690.020.999.800;;;;;;;;;;;;;;;;clips/clip_weißt_01_sub_1.mp4;audios/clip_weißt_01_sub_1.mp3;audiovisual;[5.962068900000304];None;None;;;;;;203;B;2026-03-30_14h44.47.938;exp_sofc_final;;02.01.2026;5.996.789.309.914.360;2026-03-30 14h44.49.635826 +0200
;65;0;65;;;;2;None;1.365.282.170.008.860;None;;;;;;;;;;;65;0;65;0;10.736.015.857.001.700;;;;;;;;;;;;;;;;clips/clip_weißt_03_nosub_0.mp4;audios/clip_weißt_03_nosub_0.mp3;audiovisual;[];2;None;3;1.365.282.170.008.860;None;;;203;B;2026-03-30_14h44.47.938;exp_sofc_final;;02.01.2026;5.996.789.309.914.360;2026-03-30 14h44.49.635826 +0200
;66;0;66;;;;None;None;;;;;;;;;;;;;66;0;66;0;1.100.202.779.199.920;;;;;;;;;;;;;;;;clips/clip_hund_18_nosub_1.mp4;audios/silence.mp3;visual;[6.8613323997706175];None;None;;;;;;203;B;2026-03-30_14h44.47.938;exp_sofc_final;;02.01.2026;5.996.789.309.914.360;2026-03-30 14h44.49.635826 +0200
;67;0;67;;;;None;None;;;;;;;;;;;;;67;0;67;0;1.111.070.946.100.160;;;;;;;;;;;;;;;;clips/clip_weißt_06_sub_0.mp4;audios/clip_weißt_06_sub_0.mp3;audiovisual;[];None;None;;;;;;203;B;2026-03-30_14h44.47.938;exp_sofc_final;;02.01.2026;5.996.789.309.914.360;2026-03-30 14h44.49.635826 +0200
;68;0;68;;;;None;None;;;;;;;;;;;;;68;0;68;0;11.221.051.656.999.600;;;;;;;;;;;;;;;;clips/clip_holo_11_nosub_2.mp4;audios/silence.mp3;visual;[5.610958699602634, 9.071358599700034];None;None;;;;;;203;B;2026-03-30_14h44.47.938;exp_sofc_final;;02.01.2026;5.996.789.309.914.360;2026-03-30 14h44.49.635826 +0200
;69;0;69;;;;None;None;;;;;;;;;;;;;69;0;69;0;11.326.250.812.001.500;;;;;;;;;;;;;;;;clips/clip_claude_24_sub_1.mp4;audios/silence.mp3;visual;[6.06884209997952];None;None;;;;;;203;B;2026-03-30_14h44.47.938;exp_sofc_final;;02.01.2026;5.996.789.309.914.360;2026-03-30 14h44.49.635826 +0200
;70;0;70;;;;None;None;;;;;;;;;;;;;70;0;70;0;11.396.901.222.001.700;;;;;;;;;;;;;;;;clips/clip_wurst_13_nosub_0.mp4;audios/clip_wurst_13_nosub_0.mp3;audiovisual;[];None;None;;;;;;203;B;2026-03-30_14h44.47.938;exp_sofc_final;;02.01.2026;5.996.789.309.914.360;2026-03-30 14h44.49.635826 +0200
;71;0;71;;;;None;None;;;;;;;;;;;;;71;0;71;0;1.150.287.567.900.020;;;;;;;;;;;;;;;;clips/clip_hund_27_sub_1.mp4;audios/clip_hund_27_sub_1.mp3;audiovisual;[];None;None;;;;;;203;B;2026-03-30_14h44.47.938;exp_sofc_final;;02.01.2026;5.996.789.309.914.360;2026-03-30 14h44.49.635826 +0200
;72;0;72;;;;None;None;;;;;;;;;;;;;72;0;72;0;11.612.550.484.999.000;;;;;;;;;;;;;;;;clips/clip_hund_01_nosub_0.mp4;audios/clip_hund_01_nosub_0.mp3;audiovisual;[];None;None;;;;;;203;B;2026-03-30_14h44.47.938;exp_sofc_final;;02.01.2026;5.996.789.309.914.360;2026-03-30 14h44.49.635826 +0200
;73;0;73;;;;None;None;;;;;;;;;;;;;73;0;73;0;11.729.200.162.999.300;;;;;;;;;;;;;;;;clips/clip_wurst_33_nosub_0.mp4;audios/clip_wurst_33_nosub_0.mp3;audiovisual;[];None;None;;;;;;203;B;2026-03-30_14h44.47.938;exp_sofc_final;;02.01.2026;5.996.789.309.914.360;2026-03-30 14h44.49.635826 +0200
;74;0;74;;;;None;None;;;;;;;;;;;;;74;0;74;0;11.835.844.132.998.000;;;;;;;;;;;;;;;;clips/clip_claude_19_nosub_0.mp4;audios/clip_claude_19_nosub_0.mp3;audiovisual;[];None;None;;;;;;203;B;2026-03-30_14h44.47.938;exp_sofc_final;;02.01.2026;5.996.789.309.914.360;2026-03-30 14h44.49.635826 +0200
;75;0;75;;;;None;None;;;;;;;;;;;;;75;0;75;0;1.194.794.522.400.010;;;;;;;;;;;;;;;;clips/clip_claude_22_nosub_2.mp4;audios/silence.mp3;visual;[8.453979900106788];None;None;;;;;;203;B;2026-03-30_14h44.47.938;exp_sofc_final;;02.01.2026;5.996.789.309.914.360;2026-03-30 14h44.49.635826 +0200
;76;0;76;;;;None;None;;;;;;;;;;;;;76;0;76;0;12.063.705.743.001.700;;;;;;;;;;;;;;;;clips/clip_hund_35_nosub_0.mp4;audios/silence.mp3;visual;[];None;None;;;;;;203;B;2026-03-30_14h44.47.938;exp_sofc_final;;02.01.2026;5.996.789.309.914.360;2026-03-30 14h44.49.635826 +0200
;77;0;77;;;;None;None;;;;;;;;;;;;;77;0;77;0;12.176.792.375.999.500;;;;;;;;;;;;;;;;clips/clip_lied_09_sub_1.mp4;audios/silence.mp3;visual;[];None;None;;;;;;203;B;2026-03-30_14h44.47.938;exp_sofc_final;;02.01.2026;5.996.789.309.914.360;2026-03-30 14h44.49.635826 +0200
;78;0;78;;;;None;None;;;;;;;;;;;;;78;0;78;0;12.290.479.687.000.600;;;;;;;;;;;;;;;;clips/clip_lied_06_sub_1.mp4;audios/clip_lied_06_sub_1.mp3;audiovisual;[];None;None;;;;;;203;B;2026-03-30_14h44.47.938;exp_sofc_final;;02.01.2026;5.996.789.309.914.360;2026-03-30 14h44.49.635826 +0200
;79;0;79;;;;None;None;;;;;;;;;;;;;79;0;79;0;12.425.103.389.001.400;;;;;;;;;;;;;;;;clips/clip_herz_13_nosub_0.mp4;audios/clip_herz_13_nosub_0.mp3;audiovisual;[];None;None;;;;;;203;B;2026-03-30_14h44.47.938;exp_sofc_final;;02.01.2026;5.996.789.309.914.360;2026-03-30 14h44.49.635826 +0200
;80;0;80;;;;None;None;;;;;;;;;;;;;80;0;80;0;1.254.567.160.599.860;;;;;;;;;;;;;;;;clips/clip_wurst_20_nosub_0.mp4;audios/silence.mp3;visual;[];None;None;;;;;;203;B;2026-03-30_14h44.47.938;exp_sofc_final;;02.01.2026;5.996.789.309.914.360;2026-03-30 14h44.49.635826 +0200
;81;0;81;;;;1;None;3.658.814.599.737.520;None;;;;;;;;;;;81;0;81;0;12.655.133.612.998.700;;;;;;;;;;;;;;;;clips/clip_holo_18_sub_0.mp4;audios/clip_holo_18_sub_0.mp3;audiovisual;[6.550105999689549, 9.524058099836111];1;None;1;3.658.814.599.737.520;None;;;203;B;2026-03-30_14h44.47.938;exp_sofc_final;;02.01.2026;5.996.789.309.914.360;2026-03-30 14h44.49.635826 +0200
;82;0;82;;;;4;None;5.679.906.700.272.110;None;;;;;;;;;;;82;0;82;0;12.820.108.519.000.900;;;;;;;;;;;;;;;;clips/clip_hund_19_nosub_0.mp4;audios/clip_hund_19_nosub_0.mp3;audiovisual;[];4;None;4;5.679.906.700.272.110;None;;;203;B;2026-03-30_14h44.47.938;exp_sofc_final;;02.01.2026;5.996.789.309.914.360;2026-03-30 14h44.49.635826 +0200
;83;0;83;;;;None;None;;;;;;;;;;;;;83;0;83;0;12.998.075.568.000.700;;;;;;;;;;;;;;;;clips/clip_weißt_26_sub_1.mp4;audios/silence.mp3;visual;[7.752776000183076];None;None;;;;;;203;B;2026-03-30_14h44.47.938;exp_sofc_final;;02.01.2026;5.996.789.309.914.360;2026-03-30 14h44.49.635826 +0200
;84;0;84;;;;None;None;;;;;;;;;;;;;84;0;84;0;13.109.915.865.999.600;;;;;;;;;;;;;;;;clips/clip_wurst_19_sub_0.mp4;audios/clip_wurst_19_sub_0.mp3;audiovisual;[];None;None;;;;;;203;B;2026-03-30_14h44.47.938;exp_sofc_final;;02.01.2026;5.996.789.309.914.360;2026-03-30 14h44.49.635826 +0200
;85;0;85;;;;None;None;;;;;;;;;;;;;85;0;85;0;132.283.576.240.018;;;;;;;;;;;;;;;;clips/clip_lied_17_nosub_2.mp4;audios/clip_lied_17_nosub_2.mp3;audiovisual;[2.9349865997210145];None;None;;;;;;203;B;2026-03-30_14h44.47.938;exp_sofc_final;;02.01.2026;5.996.789.309.914.360;2026-03-30 14h44.49.635826 +0200
;86;0;86;;;;None;None;;;;;;;;;;;;;86;0;86;0;13.336.852.448.000.500;;;;;;;;;;;;;;;;clips/clip_lied_01_sub_1.mp4;audios/silence.mp3;visual;[5.119672599714249];None;None;;;;;;203;B;2026-03-30_14h44.47.938;exp_sofc_final;;02.01.2026;5.996.789.309.914.360;2026-03-30 14h44.49.635826 +0200
;87;0;87;;;;None;None;;;;;;;;;;;;;87;0;87;0;13.445.434.950.999.900;;;;;;;;;;;;;;;;clips/clip_claude_16_sub_1.mp4;audios/silence.mp3;visual;[5.359754899982363, 9.658445299603045];None;None;;;;;;203;B;2026-03-30_14h44.47.938;exp_sofc_final;;02.01.2026;5.996.789.309.914.360;2026-03-30 14h44.49.635826 +0200
;88;0;88;;;;None;None;;;;;;;;;;;;;88;0;88;0;13.566.281.826.999.000;;;;;;;;;;;;;;;;clips/clip_hund_09_sub_2.mp4;audios/clip_hund_09_sub_2.mp3;audiovisual;[11.548027500044554];None;None;;;;;;203;B;2026-03-30_14h44.47.938;exp_sofc_final;;02.01.2026;5.996.789.309.914.360;2026-03-30 14h44.49.635826 +0200
;89;0;89;;;;None;None;;;;;;;;;;;;;89;0;89;0;13.689.754.317.998.800;;;;;;;;;;;;;;;;clips/clip_hund_03_sub_1.mp4;audios/silence.mp3;visual;[6.69107579998672];None;None;;;;;;203;B;2026-03-30_14h44.47.938;exp_sofc_final;;02.01.2026;5.996.789.309.914.360;2026-03-30 14h44.49.635826 +0200
;90;0;90;;;;None;None;;;;;;;;;;;;;90;0;90;0;1.381.695.187.699.980;;;;;;;;;;;;;;;;clips/clip_wurst_26_sub_1.mp4;audios/silence.mp3;visual;[10.754087099805474];None;None;;;;;;203;B;2026-03-30_14h44.47.938;exp_sofc_final;;02.01.2026;5.996.789.309.914.360;2026-03-30 14h44.49.635826 +0200
;91;0;91;;;;None;None;;;;;;;;;;;;;91;0;91;0;1.394.532.746.899.870;;;;;;;;;;;;;;;;clips/clip_herz_04_nosub_0.mp4;audios/silence.mp3;visual;[7.916973600164056];None;None;;;;;;203;B;2026-03-30_14h44.47.938;exp_sofc_final;;02.01.2026;5.996.789.309.914.360;2026-03-30 14h44.49.635826 +0200
;92;0;92;;;;None;None;;;;;;;;;;;;;92;0;92;0;14.064.582.996.000.500;;;;;;;;;;;;;;;;clips/clip_weißt_17_nosub_0.mp4;audios/silence.mp3;visual;[];None;None;;;;;;203;B;2026-03-30_14h44.47.938;exp_sofc_final;;02.01.2026;5.996.789.309.914.360;2026-03-30 14h44.49.635826 +0200
;93;0;93;;;;None;None;;;;;;;;;;;;;93;0;93;0;14.187.935.242.997.400;;;;;;;;;;;;;;;;clips/clip_hund_12_sub_1.mp4;audios/silence.mp3;visual;[2.8112850999459624, 5.131829800084233, 10.258279699832201];None;None;;;;;;203;B;2026-03-30_14h44.47.938;exp_sofc_final;;02.01.2026;5.996.789.309.914.360;2026-03-30 14h44.49.635826 +0200
;94;0;94;;;;None;None;;;;;;;;;;;;;94;0;94;0;1.430.825.388.299.760;;;;;;;;;;;;;;;;clips/clip_lied_20_nosub_2.mp4;audios/silence.mp3;visual;[4.0095850001089275, 8.348800200037658];None;None;;;;;;203;B;2026-03-30_14h44.47.938;exp_sofc_final;;02.01.2026;5.996.789.309.914.360;2026-03-30 14h44.49.635826 +0200
;95;0;95;;;;None;None;;;;;;;;;;;;;95;0;95;0;14.424.830.820.998.100;;;;;;;;;;;;;;;;clips/clip_wurst_21_nosub_0.mp4;audios/clip_wurst_21_nosub_0.mp3;audiovisual;[6.323666000273079];None;None;;;;;;203;B;2026-03-30_14h44.47.938;exp_sofc_final;;02.01.2026;5.996.789.309.914.360;2026-03-30 14h44.49.635826 +0200
;96;0;96;;;;None;None;;;;;;;;;;;;;96;0;96;0;14.537.791.260.997.700;;;;;;;;;;;;;;;;clips/clip_claude_23_nosub_0.mp4;audios/clip_claude_23_nosub_0.mp3;audiovisual;[];None;None;;;;;;203;B;2026-03-30_14h44.47.938;exp_sofc_final;;02.01.2026;5.996.789.309.914.360;2026-03-30 14h44.49.635826 +0200
;97;0;97;;;;None;None;;;;;;;;;;;;;97;0;97;0;14.668.177.037.998.100;;;;;;;;;;;;;;;;clips/clip_dampf_03_nosub_1.mp4;audios/clip_dampf_03_nosub_1.mp3;audiovisual;[7.7517425999976695];None;None;;;;;;203;B;2026-03-30_14h44.47.938;exp_sofc_final;;02.01.2026;5.996.789.309.914.360;2026-03-30 14h44.49.635826 +0200
;98;0;98;;;;None;None;;;;;;;;;;;;;98;0;98;0;14.753.642.024.998.500;;;;;;;;;;;;;;;;clips/clip_claude_13_sub_0.mp4;audios/clip_claude_13_sub_0.mp3;audiovisual;[];None;None;;;;;;203;B;2026-03-30_14h44.47.938;exp_sofc_final;;02.01.2026;5.996.789.309.914.360;2026-03-30 14h44.49.635826 +0200
;99;0;99;;;;None;None;;;;;;;;;;;;;99;0;99;0;14.854.242.869.997.300;;;;;;;;;;;;;;;;clips/clip_herz_14_sub_0.mp4;audios/silence.mp3;visual;[];None;None;;;;;;203;B;2026-03-30_14h44.47.938;exp_sofc_final;;02.01.2026;5.996.789.309.914.360;2026-03-30 14h44.49.635826 +0200
;100;0;100;;;;None;None;;;;;;;;;;;;;100;0;100;0;14.968.507.550.000.200;;;;;;;;;;;;;;;;clips/clip_wurst_35_sub_0.mp4;audios/clip_wurst_35_sub_0.mp3;audiovisual;[];None;None;;;;;;203;B;2026-03-30_14h44.47.938;exp_sofc_final;;02.01.2026;5.996.789.309.914.360;2026-03-30 14h44.49.635826 +0200
;101;0;101;;;;3;None;83.994.080.000.557;None;;;;;;;;;;;101;0;101;0;15.069.069.161.000.600;;;;;;;;;;;;;;;;clips/clip_hund_32_sub_1.mp4;audios/silence.mp3;visual;[7.176394499838352];3;None;3;83.994.080.000.557;None;;;203;B;2026-03-30_14h44.47.938;exp_sofc_final;;02.01.2026;5.996.789.309.914.360;2026-03-30 14h44.49.635826 +0200
;102;0;102;;;;None;None;;;;;;;;;;;;;102;0;102;0;15.263.274.904.000.500;;;;;;;;;;;;;;;;clips/clip_holo_02_sub_2.mp4;audios/clip_holo_02_sub_2.mp3;audiovisual;[8.11198000004515];None;None;;;;;;203;B;2026-03-30_14h44.47.938;exp_sofc_final;;02.01.2026;5.996.789.309.914.360;2026-03-30 14h44.49.635826 +0200
;103;0;103;;;;3;None;3.086.169.400.252.400;None;;;;;;;;;;;103;0;103;0;15.382.521.257.000.000;;;;;;;;;;;;;;;;clips/clip_hund_29_nosub_0.mp4;audios/silence.mp3;visual;[10.996929500252008];3;None;3;3.086.169.400.252.400;None;;;203;B;2026-03-30_14h44.47.938;exp_sofc_final;;02.01.2026;5.996.789.309.914.360;2026-03-30 14h44.49.635826 +0200
;104;0;104;;;;None;None;;;;;;;;;;;;;104;0;104;0;15.537.361.042.001.200;;;;;;;;;;;;;;;;clips/clip_holo_17_sub_0.mp4;audios/silence.mp3;visual;[];None;None;;;;;;203;B;2026-03-30_14h44.47.938;exp_sofc_final;;02.01.2026;5.996.789.309.914.360;2026-03-30 14h44.49.635826 +0200
;105;0;105;;;;None;None;;;;;;;;;;;;;105;0;105;0;15.643.356.086.001.700;;;;;;;;;;;;;;;;clips/clip_lied_14_sub_0.mp4;audios/silence.mp3;visual;[];None;None;;;;;;203;B;2026-03-30_14h44.47.938;exp_sofc_final;;02.01.2026;5.996.789.309.914.360;2026-03-30 14h44.49.635826 +0200
;106;0;106;;;;None;None;;;;;;;;;;;;;106;0;106;0;1.574.918.798.299.970;;;;;;;;;;;;;;;;clips/clip_lied_02_sub_2.mp4;audios/clip_lied_02_sub_2.mp3;audiovisual;[];None;None;;;;;;203;B;2026-03-30_14h44.47.938;exp_sofc_final;;02.01.2026;5.996.789.309.914.360;2026-03-30 14h44.49.635826 +0200
;107;0;107;;;;None;None;;;;;;;;;;;;;107;0;107;0;15.867.710.973.001.000;;;;;;;;;;;;;;;;clips/clip_wurst_28_nosub_1.mp4;audios/silence.mp3;visual;[];None;None;;;;;;203;B;2026-03-30_14h44.47.938;exp_sofc_final;;02.01.2026;5.996.789.309.914.360;2026-03-30 14h44.49.635826 +0200
;108;0;108;;;;None;None;;;;;;;;;;;;;108;0;108;0;15.980.068.461.997.400;;;;;;;;;;;;;;;;clips/clip_wurst_11_sub_0.mp4;audios/clip_wurst_11_sub_0.mp3;audiovisual;[];None;None;;;;;;203;B;2026-03-30_14h44.47.938;exp_sofc_final;;02.01.2026;5.996.789.309.914.360;2026-03-30 14h44.49.635826 +0200
;109;0;109;;;;3;None;7.544.615.199.789.400;None;;;;;;;;;;;109;0;109;0;1.610.823.361.999.820;;;;;;;;;;;;;;;;clips/clip_claude_20_sub_1.mp4;audios/silence.mp3;visual;[6.833175099920481];3;None;1;7.544.615.199.789.400;None;;;203;B;2026-03-30_14h44.47.938;exp_sofc_final;;02.01.2026;5.996.789.309.914.360;2026-03-30 14h44.49.635826 +0200
;110;0;110;;;;None;None;;;;;;;;;;;;;110;0;110;0;16.313.490.860.001.100;;;;;;;;;;;;;;;;clips/clip_wurst_24_nosub_1.mp4;audios/silence.mp3;visual;[];None;None;;;;;;203;B;2026-03-30_14h44.47.938;exp_sofc_final;;02.01.2026;5.996.789.309.914.360;2026-03-30 14h44.49.635826 +0200
;111;0;111;;;;4;None;8.298.608.799.930.660;None;;;;;;;;;;;111;0;111;0;1.643.500.445.799.900;;;;;;;;;;;;;;;;clips/clip_dampf_02_nosub_1.mp4;audios/silence.mp3;visual;[4.991237000096589];4;None;4;8.298.608.799.930.660;None;;;203;B;2026-03-30_14h44.47.938;exp_sofc_final;;02.01.2026;5.996.789.309.914.360;2026-03-30 14h44.49.635826 +0200
;112;0;112;;;;None;None;;;;;;;;;;;;;112;0;112;0;1.662.014.612.799.970;;;;;;;;;;;;;;;;clips/clip_weißt_15_sub_1.mp4;audios/silence.mp3;visual;[5.169118599966168];None;None;;;;;;203;B;2026-03-30_14h44.47.938;exp_sofc_final;;02.01.2026;5.996.789.309.914.360;2026-03-30 14h44.49.635826 +0200
;113;0;113;;;;None;None;;;;;;;;;;;;;113;0;113;0;16.737.815.135.000.200;;;;;;;;;;;;;;;;clips/clip_lied_07_nosub_1.mp4;audios/silence.mp3;visual;[4.44895979994908];None;None;;;;;;203;B;2026-03-30_14h44.47.938;exp_sofc_final;;02.01.2026;5.996.789.309.914.360;2026-03-30 14h44.49.635826 +0200
;114;0;114;;;;None;None;;;;;;;;;;;;;114;0;114;0;16.837.015.221.999.000;;;;;;;;;;;;;;;;clips/clip_hund_16_sub_1.mp4;audios/silence.mp3;visual;[];None;None;;;;;;203;B;2026-03-30_14h44.47.938;exp_sofc_final;;02.01.2026;5.996.789.309.914.360;2026-03-30 14h44.49.635826 +0200
;115;0;115;;;;None;None;;;;;;;;;;;;;115;0;115;0;169.544.160.869.997;;;;;;;;;;;;;;;;clips/clip_lied_05_sub_0.mp4;audios/silence.mp3;visual;[];None;None;;;;;;203;B;2026-03-30_14h44.47.938;exp_sofc_final;;02.01.2026;5.996.789.309.914.360;2026-03-30 14h44.49.635826 +0200
;116;0;116;;;;None;None;;;;;;;;;;;;;116;0;116;0;1.705.721.665.199.840;;;;;;;;;;;;;;;;clips/clip_herz_17_nosub_0.mp4;audios/clip_herz_17_nosub_0.mp3;audiovisual;[5.613925500307232];None;None;;;;;;203;B;2026-03-30_14h44.47.938;exp_sofc_final;;02.01.2026;5.996.789.309.914.360;2026-03-30 14h44.49.635826 +0200
;117;0;117;;;;2;None;33.148.428.997.956.200;None;;;;;;;;;;;117;0;117;0;1.714.751.920.199.950;;;;;;;;;;;;;;;;clips/clip_claude_12_sub_0.mp4;audios/silence.mp3;visual;[];2;None;2;33.148.428.997.956.200;None;;;203;B;2026-03-30_14h44.47.938;exp_sofc_final;;02.01.2026;5.996.789.309.914.360;2026-03-30 14h44.49.635826 +0200
;118;0;118;;;;None;None;;;;;;;;;;;;;118;0;118;0;17.283.463.121.000.600;;;;;;;;;;;;;;;;clips/clip_claude_01_sub_2.mp4;audios/clip_claude_01_sub_2.mp3;audiovisual;[8.917529099620879];None;None;;;;;;203;B;2026-03-30_14h44.47.938;exp_sofc_final;;02.01.2026;5.996.789.309.914.360;2026-03-30 14h44.49.635826 +0200
;119;0;119;;;;2;space;34.525.903.002.358.900;None;4.720.833.700.150.250;None;;;;;;;;;119;0;119;0;17.400.808.596.997.500;;;;;;;;;;;;;;;;clips/clip_holo_04_nosub_2.mp4;audios/clip_holo_04_nosub_2.mp3;audiovisual;[3.1789723997935653, 8.252740799915045];2;space;2;34.525.903.002.358.900;None;4.720.833.700.150.250;None;203;B;2026-03-30_14h44.47.938;exp_sofc_final;;02.01.2026;5.996.789.309.914.360;2026-03-30 14h44.49.635826 +0200
;120;0;120;;;;None;None;;;;;;;;;;;;;120;0;120;0;17.612.809.619.000.100;;;;;;;;;;;;;;;;clips/clip_weißt_07_nosub_1.mp4;audios/silence.mp3;visual;[4.755414000246674];None;None;;;;;;203;B;2026-03-30_14h44.47.938;exp_sofc_final;;02.01.2026;5.996.789.309.914.360;2026-03-30 14h44.49.635826 +0200
;121;0;121;;;;None;None;;;;;;;;;;;;;121;0;121;0;1.771.721.249.499.820;;;;;;;;;;;;;;;;clips/clip_wurst_03_nosub_1.mp4;audios/silence.mp3;visual;[4.2757538999430835];None;None;;;;;;203;B;2026-03-30_14h44.47.938;exp_sofc_final;;02.01.2026;5.996.789.309.914.360;2026-03-30 14h44.49.635826 +0200
;122;0;122;;;;1;None;5.250.209.900.084.880;None;;;;;;;;;;;122;0;122;0;1.784.530.815.300.060;;;;;;;;;;;;;;;;clips/clip_claude_11_nosub_0.mp4;audios/clip_claude_11_nosub_0.mp3;audiovisual;[];1;None;1;5.250.209.900.084.880;None;;;203;B;2026-03-30_14h44.47.938;exp_sofc_final;;02.01.2026;5.996.789.309.914.360;2026-03-30 14h44.49.635826 +0200
;123;0;123;;;;1;None;8.279.181.499.965.480;None;;;;;;;;;;;123;0;123;0;18.007.388.232.997.600;;;;;;;;;;;;;;;;clips/clip_lied_15_sub_2.mp4;audios/clip_lied_15_sub_2.mp3;audiovisual;[3.215626200195402, 8.030891000293195];1;None;1;8.279.181.499.965.480;None;;;203;B;2026-03-30_14h44.47.938;exp_sofc_final;;02.01.2026;5.996.789.309.914.360;2026-03-30 14h44.49.635826 +0200
;124;0;124;;;;1;None;26.122.769.000.940.000;None;;;;;;;;;;;124;0;124;0;18.172.287.556.999.300;;;;;;;;;;;;;;;;clips/clip_hund_10_nosub_0.mp4;audios/silence.mp3;visual;[8.088479700032622];1;None;1;26.122.769.000.940.000;None;;;203;B;2026-03-30_14h44.47.938;exp_sofc_final;;02.01.2026;5.996.789.309.914.360;2026-03-30 14h44.49.635826 +0200
;125;0;125;;;;None;None;;;;;;;;;;;;;125;0;125;0;18.303.438.784.000.400;;;;;;;;;;;;;;;;clips/clip_wurst_04_nosub_2.mp4;audios/clip_wurst_04_nosub_2.mp3;audiovisual;[4.0560952997766435, 7.021537999622524];None;None;;;;;;203;B;2026-03-30_14h44.47.938;exp_sofc_final;;02.01.2026;5.996.789.309.914.360;2026-03-30 14h44.49.635826 +0200
;126;0;126;;;;None;None;;;;;;;;;;;;;126;0;126;0;18.429.661.285.001.700;;;;;;;;;;;;;;;;clips/clip_hund_07_nosub_1.mp4;audios/clip_hund_07_nosub_1.mp3;audiovisual;[6.7258768999017775];None;None;;;;;;203;B;2026-03-30_14h44.47.938;exp_sofc_final;;02.01.2026;5.996.789.309.914.360;2026-03-30 14h44.49.635826 +0200
;127;0;127;;;;None;None;;;;;;;;;;;;;127;0;127;0;18.551.725.257.001.800;;;;;;;;;;;;;;;;clips/clip_dampf_01_sub_0.mp4;audios/clip_dampf_01_sub_0.mp3;audiovisual;[];None;None;;;;;;203;B;2026-03-30_14h44.47.938;exp_sofc_final;;02.01.2026;5.996.789.309.914.360;2026-03-30 14h44.49.635826 +0200
;128;0;128;;;;None;None;;;;;;;;;;;;;128;0;128;0;1.865.465.239.400.040;;;;;;;;;;;;;;;;clips/clip_herz_09_nosub_0.mp4;audios/clip_herz_09_nosub_0.mp3;audiovisual;[];None;None;;;;;;203;B;2026-03-30_14h44.47.938;exp_sofc_final;;02.01.2026;5.996.789.309.914.360;2026-03-30 14h44.49.635826 +0200
;129;0;129;;;;None;None;;;;;;;;;;;;;129;0;129;0;1.877.971.424.299.750;;;;;;;;;;;;;;;;clips/clip_herz_05_nosub_0.mp4;audios/clip_herz_05_nosub_0.mp3;audiovisual;[6.19868400041014, 7.701966600026935];None;None;;;;;;203;B;2026-03-30_14h44.47.938;exp_sofc_final;;02.01.2026;5.996.789.309.914.360;2026-03-30 14h44.49.635826 +0200
;130;0;130;;;;None;None;;;;;;;;;;;;;130;0;130;0;18.890.197.320.999.500;;;;;;;;;;;;;;;;clips/clip_claude_21_sub_1.mp4;audios/clip_claude_21_sub_1.mp3;audiovisual;[9.80765420012176];None;None;;;;;;203;B;2026-03-30_14h44.47.938;exp_sofc_final;;02.01.2026;5.996.789.309.914.360;2026-03-30 14h44.49.635826 +0200
;131;0;131;;;;None;None;;;;;;;;;;;;;131;0;131;0;19.020.924.829.998.900;;;;;;;;;;;;;;;;clips/clip_holo_15_nosub_0.mp4;audios/silence.mp3;visual;[6.516383599955589];None;None;;;;;;203;B;2026-03-30_14h44.47.938;exp_sofc_final;;02.01.2026;5.996.789.309.914.360;2026-03-30 14h44.49.635826 +0200
;132;0;132;;;;None;None;;;;;;;;;;;;;132;0;132;0;1.912.166.955.200.020;;;;;;;;;;;;;;;;clips/clip_wurst_14_sub_1.mp4;audios/silence.mp3;visual;[8.130265099927783];None;None;;;;;;203;B;2026-03-30_14h44.47.938;exp_sofc_final;;02.01.2026;5.996.789.309.914.360;2026-03-30 14h44.49.635826 +0200
;133;0;133;;;;None;None;;;;;;;;;;;;;133;0;133;0;19.230.760.852.000.600;;;;;;;;;;;;;;;;clips/clip_wurst_06_sub_2.mp4;audios/clip_wurst_06_sub_2.mp3;audiovisual;[8.484942799899727];None;None;;;;;;203;B;2026-03-30_14h44.47.938;exp_sofc_final;;02.01.2026;5.996.789.309.914.360;2026-03-30 14h44.49.635826 +0200
;134;0;134;;;;None;None;;;;;;;;;;;;;134;0;134;0;19.350.310.597.000.600;;;;;;;;;;;;;;;;clips/clip_lied_21_nosub_2.mp4;audios/clip_lied_21_nosub_2.mp3;audiovisual;[5.383162699639797];None;None;;;;;;203;B;2026-03-30_14h44.47.938;exp_sofc_final;;02.01.2026;5.996.789.309.914.360;2026-03-30 14h44.49.635826 +0200
;135;0;135;;;;2;None;24.291.837.997.734.500;None;;;;;;;;;;;135;0;135;0;19.474.332.762.998.500;;;;;;;;;;;;;;;;clips/clip_lied_19_sub_1.mp4;audios/clip_lied_19_sub_1.mp3;audiovisual;[];2;None;2;24.291.837.997.734.500;None;;;203;B;2026-03-30_14h44.47.938;exp_sofc_final;;02.01.2026;5.996.789.309.914.360;2026-03-30 14h44.49.635826 +0200
;136;0;136;;;;None;None;;;;;;;;;;;;;136;0;136;0;19.614.208.480.999.800;;;;;;;;;;;;;;;;clips/clip_claude_08_sub_0.mp4;audios/silence.mp3;visual;[];None;None;;;;;;203;B;2026-03-30_14h44.47.938;exp_sofc_final;;02.01.2026;5.996.789.309.914.360;2026-03-30 14h44.49.635826 +0200
;137;0;137;;;;None;None;;;;;;;;;;;;;137;0;137;0;19.718.650.533.999.300;;;;;;;;;;;;;;;;clips/clip_wurst_10_sub_2.mp4;audios/silence.mp3;visual;[4.7187117002904415, 7.469378000125289];None;None;;;;;;203;B;2026-03-30_14h44.47.938;exp_sofc_final;;02.01.2026;5.996.789.309.914.360;2026-03-30 14h44.49.635826 +0200
;138;0;138;;;;None;None;;;;;;;;;;;;;138;0;138;0;1.981.526.408.500.030;;;;;;;;;;;;;;;;clips/clip_wurst_25_nosub_1.mp4;audios/clip_wurst_25_nosub_1.mp3;audiovisual;[];None;None;;;;;;203;B;2026-03-30_14h44.47.938;exp_sofc_final;;02.01.2026;5.996.789.309.914.360;2026-03-30 14h44.49.635826 +0200
;139;0;139;;;;1;None;2.381.458.400.283.000;None;;;;;;;;;;;139;0;139;0;19.936.317.655.998.200;;;;;;;;;;;;;;;;clips/clip_holo_24_nosub_2.mp4;audios/clip_holo_24_nosub_2.mp3;audiovisual;[7.507757600396872];1;None;1;2.381.458.400.283.000;None;;;203;B;2026-03-30_14h44.47.938;exp_sofc_final;;02.01.2026;5.996.789.309.914.360;2026-03-30 14h44.49.635826 +0200
;140;0;140;;;;None;None;;;;;;;;;;;;;140;0;140;0;20.067.703.333.999.900;;;;;;;;;;;;;;;;clips/clip_claude_06_nosub_1.mp4;audios/silence.mp3;visual;[4.301431900355965];None;None;;;;;;203;B;2026-03-30_14h44.47.938;exp_sofc_final;;02.01.2026;5.996.789.309.914.360;2026-03-30 14h44.49.635826 +0200
;141;0;141;;;;None;None;;;;;;;;;;;;;141;0;141;0;20.201.067.373.999.300;;;;;;;;;;;;;;;;clips/clip_herz_15_sub_0.mp4;audios/clip_herz_15_sub_0.mp3;audiovisual;[8.062219699844718];None;None;;;;;;203;B;2026-03-30_14h44.47.938;exp_sofc_final;;02.01.2026;5.996.789.309.914.360;2026-03-30 14h44.49.635826 +0200
;142;0;142;;;;None;None;;;;;;;;;;;;;142;0;142;0;20.329.889.898.998.600;;;;;;;;;;;;;;;;clips/clip_claude_05_sub_2.mp4;audios/clip_claude_05_sub_2.mp3;audiovisual;[4.81669079978019];None;None;;;;;;203;B;2026-03-30_14h44.47.938;exp_sofc_final;;02.01.2026;5.996.789.309.914.360;2026-03-30 14h44.49.635826 +0200
;143;0;143;;;;1;None;4.172.903.300.262.980;None;;;;;;;;;;;143;0;143;0;20.450.617.448.999.500;;;;;;;;;;;;;;;;clips/clip_claude_10_nosub_0.mp4;audios/silence.mp3;visual;[];1;None;1;4.172.903.300.262.980;None;;;203;B;2026-03-30_14h44.47.938;exp_sofc_final;;02.01.2026;5.996.789.309.914.360;2026-03-30 14h44.49.635826 +0200
;144;0;144;;;;None;None;;;;;;;;;;;;;144;0;144;0;20.614.834.749.000.100;;;;;;;;;;;;;;;;clips/clip_lied_10_sub_1.mp4;audios/clip_lied_10_sub_1.mp3;audiovisual;[5.071965500246733];None;None;;;;;;203;B;2026-03-30_14h44.47.938;exp_sofc_final;;02.01.2026;5.996.789.309.914.360;2026-03-30 14h44.49.635826 +0200
;145;0;145;;;;None;None;;;;;;;;;;;;;145;0;145;0;20.737.151.997.997.400;;;;;;;;;;;;;;;;clips/clip_herz_06_sub_2.mp4;audios/silence.mp3;visual;[5.121037099976093, 8.190418799873441];None;None;;;;;;203;B;2026-03-30_14h44.47.938;exp_sofc_final;;02.01.2026;5.996.789.309.914.360;2026-03-30 14h44.49.635826 +0200
;146;0;146;;;;None;None;;;;;;;;;;;;;146;0;146;0;20.855.593.932.997.400;;;;;;;;;;;;;;;;clips/clip_hund_15_nosub_1.mp4;audios/clip_hund_15_nosub_1.mp3;audiovisual;[4.747438800055534];None;None;;;;;;203;B;2026-03-30_14h44.47.938;exp_sofc_final;;02.01.2026;5.996.789.309.914.360;2026-03-30 14h44.49.635826 +0200
;147;0;147;;;;None;None;;;;;;;;;;;;;147;0;147;0;2.096.592.784.000.090;;;;;;;;;;;;;;;;clips/clip_hund_36_nosub_2.mp4;audios/clip_hund_36_nosub_2.mp3;audiovisual;[2.738612299785018, 5.904937299899757];None;None;;;;;;203;B;2026-03-30_14h44.47.938;exp_sofc_final;;02.01.2026;5.996.789.309.914.360;2026-03-30 14h44.49.635826 +0200
;148;0;148;;;;4;None;4.018.572.600.092.730;None;;;;;;;;;;;148;0;148;0;21.065.902.784.997.500;;;;;;;;;;;;;;;;clips/clip_wurst_17_nosub_0.mp4;audios/clip_wurst_17_nosub_0.mp3;audiovisual;[];4;None;4;4.018.572.600.092.730;None;;;203;B;2026-03-30_14h44.47.938;exp_sofc_final;;02.01.2026;5.996.789.309.914.360;2026-03-30 14h44.49.635826 +0200
;149;0;149;;;;None;None;;;;;;;;;;;;;149;0;149;0;2.119.599.889.600.180;;;;;;;;;;;;;;;;clips/clip_holo_10_sub_1.mp4;audios/clip_holo_10_sub_1.mp3;audiovisual;[];None;None;;;;;;203;B;2026-03-30_14h44.47.938;exp_sofc_final;;02.01.2026;5.996.789.309.914.360;2026-03-30 14h44.49.635826 +0200
;150;0;150;;;;None;None;;;;;;;;;;;;;150;0;150;0;2.130.356.509.299.940;;;;;;;;;;;;;;;;clips/clip_lied_08_nosub_1.mp4;audios/clip_lied_08_nosub_1.mp3;audiovisual;[7.5932805999182165];None;None;;;;;;203;B;2026-03-30_14h44.47.938;exp_sofc_final;;02.01.2026;5.996.789.309.914.360;2026-03-30 14h44.49.635826 +0200
;151;0;151;;;;None;None;;;;;;;;;;;;;151;0;151;0;21.403.385.334.000.900;;;;;;;;;;;;;;;;clips/clip_hund_17_sub_1.mp4;audios/clip_hund_17_sub_1.mp3;audiovisual;[10.449635099619627];None;None;;;;;;203;B;2026-03-30_14h44.47.938;exp_sofc_final;;02.01.2026;5.996.789.309.914.360;2026-03-30 14h44.49.635826 +0200
;152;0;152;;;;None;None;;;;;;;;;;;;;152;0;152;0;21.535.475.551.998.200;;;;;;;;;;;;;;;;clips/clip_holo_28_nosub_0.mp4;audios/silence.mp3;visual;[];None;None;;;;;;203;B;2026-03-30_14h44.47.938;exp_sofc_final;;02.01.2026;5.996.789.309.914.360;2026-03-30 14h44.49.635826 +0200
;153;0;153;;;;None;None;;;;;;;;;;;;;153;0;153;0;21.628.716.297.000.600;;;;;;;;;;;;;;;;clips/clip_weißt_27_sub_1.mp4;audios/clip_weißt_27_sub_1.mp3;audiovisual;[1.1357841999270022, 8.476496099960059];None;None;;;;;;203;B;2026-03-30_14h44.47.938;exp_sofc_final;;02.01.2026;5.996.789.309.914.360;2026-03-30 14h44.49.635826 +0200
;154;0;154;;;;None;None;;;;;;;;;;;;;154;0;154;0;2.173.795.210.899.780;;;;;;;;;;;;;;;;clips/clip_dampf_05_sub_2.mp4;audios/clip_dampf_05_sub_2.mp3;audiovisual;[2.567338699940592, 8.765022200066596];None;None;;;;;;203;B;2026-03-30_14h44.47.938;exp_sofc_final;;02.01.2026;5.996.789.309.914.360;2026-03-30 14h44.49.635826 +0200
;155;0;155;;;;None;None;;;;;;;;;;;;;155;0;155;0;2.183.433.375.299.900;;;;;;;;;;;;;;;;clips/clip_hund_08_sub_1.mp4;audios/silence.mp3;visual;[];None;None;;;;;;203;B;2026-03-30_14h44.47.938;exp_sofc_final;;02.01.2026;5.996.789.309.914.360;2026-03-30 14h44.49.635826 +0200
;156;0;156;;;;3;None;4.428.127.699.997.270;None;;;;;;;;;;;156;0;156;0;2.194.226.444.500.030;;;;;;;;;;;;;;;;clips/clip_herz_02_sub_0.mp4;audios/silence.mp3;visual;[9.198130500037223];3;None;3;4.428.127.699.997.270;None;;;203;B;2026-03-30_14h44.47.938;exp_sofc_final;;02.01.2026;5.996.789.309.914.360;2026-03-30 14h44.49.635826 +0200
;157;0;157;;;;None;None;;;;;;;;;;;;;157;0;157;0;22.119.536.739.997.500;;;;;;;;;;;;;;;;clips/clip_dampf_06_nosub_2.mp4;audios/silence.mp3;visual;[];None;None;;;;;;203;B;2026-03-30_14h44.47.938;exp_sofc_final;;02.01.2026;5.996.789.309.914.360;2026-03-30 14h44.49.635826 +0200
;158;0;158;;;;None;None;;;;;;;;;;;;;158;0;158;0;22.217.483.337.000.000;;;;;;;;;;;;;;;;clips/clip_wurst_22_sub_0.mp4;audios/silence.mp3;visual;[];None;None;;;;;;203;B;2026-03-30_14h44.47.938;exp_sofc_final;;02.01.2026;5.996.789.309.914.360;2026-03-30 14h44.49.635826 +0200
;159;0;159;;;;None;None;;;;;;;;;;;;;159;0;159;0;2.234.304.310.500.150;;;;;;;;;;;;;;;;clips/clip_dampf_04_sub_1.mp4;audios/silence.mp3;visual;[0.6352348001673818, 5.185108500067145];None;None;;;;;;203;B;2026-03-30_14h44.47.938;exp_sofc_final;;02.01.2026;5.996.789.309.914.360;2026-03-30 14h44.49.635826 +0200
;160;0;160;;;;None;None;;;;;;;;;;;;;160;0;160;0;2.244.840.868.799.940;;;;;;;;;;;;;;;;clips/clip_claude_07_nosub_0.mp4;audios/clip_claude_07_nosub_0.mp3;audiovisual;[];None;None;;;;;;203;B;2026-03-30_14h44.47.938;exp_sofc_final;;02.01.2026;5.996.789.309.914.360;2026-03-30 14h44.49.635826 +0200
;161;0;161;;;;None;None;;;;;;;;;;;;;161;0;161;0;2.255.623.368.400.140;;;;;;;;;;;;;;;;clips/clip_claude_14_nosub_0.mp4;audios/silence.mp3;visual;[3.3020549002103508, 8.88171839993447];None;None;;;;;;203;B;2026-03-30_14h44.47.938;exp_sofc_final;;02.01.2026;5.996.789.309.914.360;2026-03-30 14h44.49.635826 +0200
;162;0;162;;;;None;None;;;;;;;;;;;;;162;0;162;0;22.675.884.890.998.700;;;;;;;;;;;;;;;;clips/clip_claude_02_nosub_1.mp4;audios/silence.mp3;visual;[5.952512199990451];None;None;;;;;;203;B;2026-03-30_14h44.47.938;exp_sofc_final;;02.01.2026;5.996.789.309.914.360;2026-03-30 14h44.49.635826 +0200
;163;0;163;;;;1;None;38.925.737.999.379.600;None;;;;;;;;;;;163;0;163;0;2.278.266.092.900.180;;;;;;;;;;;;;;;;clips/clip_herz_01_nosub_1.mp4;audios/clip_herz_01_nosub_1.mp3;audiovisual;[6.342766699846834];1;None;1;38.925.737.999.379.600;None;;;203;B;2026-03-30_14h44.47.938;exp_sofc_final;;02.01.2026;5.996.789.309.914.360;2026-03-30 14h44.49.635826 +0200
;164;0;164;;;;None;None;;;;;;;;;;;;;164;0;164;0;22.937.204.089.001.700;;;;;;;;;;;;;;;;clips/clip_wurst_18_sub_0.mp4;audios/silence.mp3;visual;[];None;None;;;;;;203;B;2026-03-30_14h44.47.938;exp_sofc_final;;02.01.2026;5.996.789.309.914.360;2026-03-30 14h44.49.635826 +0200
;165;0;165;;;;None;None;;;;;;;;;;;;;165;0;165;0;23.044.966.178.000.900;;;;;;;;;;;;;;;;clips/clip_hund_24_sub_1.mp4;audios/silence.mp3;visual;[8.489945499692112];None;None;;;;;;203;B;2026-03-30_14h44.47.938;exp_sofc_final;;02.01.2026;5.996.789.309.914.360;2026-03-30 14h44.49.635826 +0200
;166;0;166;;;;None;None;;;;;;;;;;;;;166;0;166;0;23.173.179.385.997.300;;;;;;;;;;;;;;;;clips/clip_wurst_16_nosub_0.mp4;audios/silence.mp3;visual;[];None;None;;;;;;203;B;2026-03-30_14h44.47.938;exp_sofc_final;;02.01.2026;5.996.789.309.914.360;2026-03-30 14h44.49.635826 +0200
;167;0;167;;;;None;None;;;;;;;;;;;;;167;0;167;0;23.282.495.673.997.300;;;;;;;;;;;;;;;;clips/clip_claude_26_nosub_0.mp4;audios/silence.mp3;visual;[4.5240532997995615];None;None;;;;;;203;B;2026-03-30_14h44.47.938;exp_sofc_final;;02.01.2026;5.996.789.309.914.360;2026-03-30 14h44.49.635826 +0200
;168;0;168;;;;None;None;;;;;;;;;;;;;168;0;168;0;23.401.271.993.997.500;;;;;;;;;;;;;;;;clips/clip_holo_22_sub_1.mp4;audios/clip_holo_22_sub_1.mp3;audiovisual;[9.194650799967349];None;None;;;;;;203;B;2026-03-30_14h44.47.938;exp_sofc_final;;02.01.2026;5.996.789.309.914.360;2026-03-30 14h44.49.635826 +0200
;169;0;169;;;;None;None;;;;;;;;;;;;;169;0;169;0;23.502.414.286.001.500;;;;;;;;;;;;;;;;clips/clip_weißt_25_nosub_1.mp4;audios/clip_weißt_25_nosub_1.mp3;audiovisual;[5.401644800323993];None;None;;;;;;203;B;2026-03-30_14h44.47.938;exp_sofc_final;;02.01.2026;5.996.789.309.914.360;2026-03-30 14h44.49.635826 +0200
;170;0;170;;;;3;None;3.304.215.599.782.760;None;;;;;;;;;;;170;0;170;0;23.630.710.225.999.300;;;;;;;;;;;;;;;;clips/clip_claude_04_sub_2.mp4;audios/silence.mp3;visual;[8.878197699785233];3;None;3;3.304.215.599.782.760;None;;;203;B;2026-03-30_14h44.47.938;exp_sofc_final;;02.01.2026;5.996.789.309.914.360;2026-03-30 14h44.49.635826 +0200
;171;0;171;;;;None;None;;;;;;;;;;;;;171;0;171;0;237.637.361.790.007;;;;;;;;;;;;;;;;clips/clip_weißt_12_sub_1.mp4;audios/clip_weißt_12_sub_1.mp3;audiovisual;[9.200690600089729];None;None;;;;;;203;B;2026-03-30_14h44.47.938;exp_sofc_final;;02.01.2026;5.996.789.309.914.360;2026-03-30 14h44.49.635826 +0200
;172;0;172;;;;None;None;;;;;;;;;;;;;172;0;172;0;2.389.060.804.599.890;;;;;;;;;;;;;;;;clips/clip_hund_20_sub_0.mp4;audios/silence.mp3;visual;[];None;None;;;;;;203;B;2026-03-30_14h44.47.938;exp_sofc_final;;02.01.2026;5.996.789.309.914.360;2026-03-30 14h44.49.635826 +0200
;173;0;173;;;;None;None;;;;;;;;;;;;;173;0;173;0;2.401.415.760.300.120;;;;;;;;;;;;;;;;clips/clip_herz_07_sub_2.mp4;audios/clip_herz_07_sub_2.mp3;audiovisual;[11.659976599738002];None;None;;;;;;203;B;2026-03-30_14h44.47.938;exp_sofc_final;;02.01.2026;5.996.789.309.914.360;2026-03-30 14h44.49.635826 +0200
;174;0;174;;;;None;None;;;;;;;;;;;;;174;0;174;0;24.143.291.632.998.700;;;;;;;;;;;;;;;;clips/clip_claude_27_nosub_0.mp4;audios/clip_claude_27_nosub_0.mp3;audiovisual;[];None;None;;;;;;203;B;2026-03-30_14h44.47.938;exp_sofc_final;;02.01.2026;5.996.789.309.914.360;2026-03-30 14h44.49.635826 +0200
;175;0;175;;;;None;None;;;;;;;;;;;;;175;0;175;0;24.272.311.689.998.000;;;;;;;;;;;;;;;;clips/clip_weißt_20_sub_1.mp4;audios/silence.mp3;visual;[8.187814999837428];None;None;;;;;;203;B;2026-03-30_14h44.47.938;exp_sofc_final;;02.01.2026;5.996.789.309.914.360;2026-03-30 14h44.49.635826 +0200
;176;0;176;;;;None;None;;;;;;;;;;;;;176;0;176;0;24.379.915.276.998.600;;;;;;;;;;;;;;;;clips/clip_holo_19_nosub_1.mp4;audios/silence.mp3;visual;[6.450591400265694];None;None;;;;;;203;B;2026-03-30_14h44.47.938;exp_sofc_final;;02.01.2026;5.996.789.309.914.360;2026-03-30 14h44.49.635826 +0200
;177;0;177;;;;None;None;;;;;;;;;;;;;177;0;177;0;24.487.355.017.997.300;;;;;;;;;;;;;;;;clips/clip_wurst_32_nosub_1.mp4;audios/silence.mp3;visual;[7.335734799969941];None;None;;;;;;203;B;2026-03-30_14h44.47.938;exp_sofc_final;;02.01.2026;5.996.789.309.914.360;2026-03-30 14h44.49.635826 +0200
;178;0;178;;;;None;None;;;;;;;;;;;;;178;0;178;0;24.601.742.043.998.000;;;;;;;;;;;;;;;;clips/clip_herz_12_nosub_0.mp4;audios/silence.mp3;visual;[6.471437599975616];None;None;;;;;;203;B;2026-03-30_14h44.47.938;exp_sofc_final;;02.01.2026;5.996.789.309.914.360;2026-03-30 14h44.49.635826 +0200
;179;0;179;;;;None;None;;;;;;;;;;;;;179;0;179;0;24.701.079.690.000.000;;;;;;;;;;;;;;;;clips/clip_hund_22_nosub_1.mp4;audios/silence.mp3;visual;[];None;None;;;;;;203;B;2026-03-30_14h44.47.938;exp_sofc_final;;02.01.2026;5.996.789.309.914.360;2026-03-30 14h44.49.635826 +0200
;;;;;;;;;;;;;;;;;;;;;;;;;;;;;;;;;;;;;;;;;;;;;;;;;;;;203;B;2026-03-30_14h44.47.938;exp_sofc_final;;02.01.2026;5.996.789.309.914.360;2026-03-30 14h44.49.635826 +0200
