instruction_text,thisN,thisTrialN,thisRepN,prac_attention_resp.keys,prac_attention_resp.rt,prac_attention_resp.duration,exp_atttention_resp.keys,exp_pause_resp.keys,exp_atttention_resp.rt,exp_atttention_resp.duration,exp_pause_resp.rt,exp_pause_resp.duration,instruction_trial.thisRepN,instruction_trial.thisTrialN,instruction_trial.thisN,instruction_trial.thisIndex,practice_trials.thisRepN,practice_trials.thisTrialN,practice_trials.thisN,practice_trials.thisIndex,experiment_trials.thisRepN,experiment_trials.thisTrialN,experiment_trials.thisN,experiment_trials.thisIndex,thisRow.t,notes,piloting,assigned_ls_group,slider_informed_consent.response,Practice_clip_name,Practice_video_used,Practice_audio_used,Practice_modality,Practice_subtitles,Practice_attention_check,Practice_all_cut_rts,practice_trials.prac_attention_resp.keys,Practice_correct_key_required,practice_trials.prac_attention_resp.rt,practice_trials.prac_attention_resp.duration,video_used,audio_used,condition_modality,all_cut_rts,experiment_trials.exp_atttention_resp.keys,experiment_trials.exp_pause_resp.keys,correct_key_required,experiment_trials.exp_atttention_resp.rt,experiment_trials.exp_atttention_resp.duration,experiment_trials.exp_pause_resp.rt,experiment_trials.exp_pause_resp.duration,participant,session,date,expName,expVersion,psychopyVersion,frameRate,expStart,
"Einverständniserklärung

Bitte lesen Sie die folgende Erklärung aufmerksam durch:

Ich bestätige, dass ich über 18 Jahre alt bin und ausreichend Zeit hatte, mich für die Teilnahme zu entscheiden. Ich wurde über die Erhebung, Verarbeitung und öffentliche Zugänglichmachung meiner anonymisierten Daten angemessen informiert.
Ich bin mir bewusst, dass ich das Experiment jederzeit abbrechen kann.

(Drücken Sie die Leertaste, um fortzufahren)",4,4,0,,,,,,,,,,0,4,4,4,,,,,,,,,21.600447199773043,,False,3,ich stimme zu,,,,,,,,,,,,,,,,,,,,,,,204,B,2026-03-30_17h06.09.755,exp_sofc_final,,2026.1.2,60.08391314657753,2026-03-30 17h06.11.754107 +0200,
,,,,,,,,,,,,,,,,,,,,,,,,,,,,,,,,,,,,,,,,,,,,,,,,,,,,204,B,2026-03-30_17h06.09.755,exp_sofc_final,,2026.1.2,60.08391314657753,2026-03-30 17h06.11.754107 +0200,
,0,0,0,None,,,,,,,,,,,,,0,0,0,0,,,,,35.18981619970873,,,,,clip_weißt_21_nosub_0,clips/clip_weißt_21_nosub_0.mp4,audios/silence.mp3,visual,nosub,False,[],None,,,,,,,,,,,,,,,204,B,2026-03-30_17h06.09.755,exp_sofc_final,,2026.1.2,60.08391314657753,2026-03-30 17h06.11.754107 +0200,
,1,0,1,2,32.84356370009482,None,,,,,,,,,,,1,0,1,0,,,,,45.590989499818534,,,,,clip_hund_31_sub_0,clips/clip_hund_31_sub_0.mp4,audios/silence.mp3,visual,sub,True,[0.4544517998583615],2,1,32.84356370009482,None,,,,,,,,,,,,204,B,2026-03-30_17h06.09.755,exp_sofc_final,,2026.1.2,60.08391314657753,2026-03-30 17h06.11.754107 +0200,
,2,0,2,None,,,,,,,,,,,,,2,0,2,0,,,,,87.97711009997874,,,,,clip_wurst_09_sub_1,clips/clip_wurst_09_sub_1.mp4,audios/clip_wurst_09_sub_1.mp3,audiovisual,sub,False,[],None,,,,,,,,,,,,,,,204,B,2026-03-30_17h06.09.755,exp_sofc_final,,2026.1.2,60.08391314657753,2026-03-30 17h06.11.754107 +0200,
,3,0,3,None,,,,,,,,,,,,,3,0,3,0,,,,,100.03909619990736,,,,,clip_hund_26_sub_1,clips/clip_hund_26_sub_1.mp4,audios/silence.mp3,visual,sub,False,[0.7277994998730719],None,,,,,,,,,,,,,,,204,B,2026-03-30_17h06.09.755,exp_sofc_final,,2026.1.2,60.08391314657753,2026-03-30 17h06.11.754107 +0200,
,4,0,4,None,,,,,,,,,,,,,4,0,4,0,,,,,110.24623219994828,,,,,clip_hund_06_nosub_0,clips/clip_hund_06_nosub_0.mp4,audios/clip_hund_06_nosub_0.mp3,audiovisual,nosub,False,[],None,,,,,,,,,,,,,,,204,B,2026-03-30_17h06.09.755,exp_sofc_final,,2026.1.2,60.08391314657753,2026-03-30 17h06.11.754107 +0200,
,5,0,5,None,,,,,,,,,,,,,5,0,5,0,,,,,121.95401449967176,,,,,clip_hund_25_sub_1,clips/clip_hund_25_sub_1.mp4,audios/silence.mp3,visual,sub,False,[6.838043499737978],None,,,,,,,,,,,,,,,204,B,2026-03-30_17h06.09.755,exp_sofc_final,,2026.1.2,60.08391314657753,2026-03-30 17h06.11.754107 +0200,
,6,0,6,3,32.160163099877536,None,,,,,,,,,,,6,0,6,0,,,,,131.24409869965166,,,,,clip_hund_02_sub_1,clips/clip_hund_02_sub_1.mp4,audios/clip_hund_02_sub_1.mp3,audiovisual,sub,True,[9.652324099559337],3,2,32.160163099877536,None,,,,,,,,,,,,204,B,2026-03-30_17h06.09.755,exp_sofc_final,,2026.1.2,60.08391314657753,2026-03-30 17h06.11.754107 +0200,
,7,0,7,None,,,,,,,,,,,,,7,0,7,0,,,,,174.23240830004215,,,,,clip_weißt_18_nosub_1,clips/clip_weißt_18_nosub_1.mp4,audios/silence.mp3,visual,nosub,False,[7.113069700077176],None,,,,,,,,,,,,,,,204,B,2026-03-30_17h06.09.755,exp_sofc_final,,2026.1.2,60.08391314657753,2026-03-30 17h06.11.754107 +0200,
,8,0,8,4,5.663823100272566,None,,,,,,,,,,,8,0,8,0,,,,,187.01133089978248,,,,,clip_hund_28_nosub_0,clips/clip_hund_28_nosub_0.mp4,audios/clip_hund_28_nosub_0.mp3,audiovisual,nosub,True,[],4,4,5.663823100272566,None,,,,,,,,,,,,204,B,2026-03-30_17h06.09.755,exp_sofc_final,,2026.1.2,60.08391314657753,2026-03-30 17h06.11.754107 +0200,
,9,0,9,None,,,,,,,,,,,,,9,0,9,0,,,,,203.57296669995412,,,,,clip_weißt_05_sub_0,clips/clip_weißt_05_sub_0.mp4,audios/clip_weißt_05_sub_0.mp3,audiovisual,sub,False,[],None,,,,,,,,,,,,,,,204,B,2026-03-30_17h06.09.755,exp_sofc_final,,2026.1.2,60.08391314657753,2026-03-30 17h06.11.754107 +0200,
,10,0,10,2,6.748727199621499,None,,,,,,,,,,,10,0,10,0,,,,,214.17745850002393,,,,,clip_weißt_09_sub_1,clips/clip_weißt_09_sub_1.mp4,audios/silence.mp3,visual,sub,True,[0.19408940011635423],2,3,6.748727199621499,None,,,,,,,,,,,,204,B,2026-03-30_17h06.09.755,exp_sofc_final,,2026.1.2,60.08391314657753,2026-03-30 17h06.11.754107 +0200,
,11,0,11,None,,,,,,,,,,,,,11,0,11,0,,,,,230.9516154997982,,,,,clip_weißt_10_nosub_1,clips/clip_weißt_10_nosub_1.mp4,audios/clip_weißt_10_nosub_1.mp3,audiovisual,nosub,False,[5.716276300139725],None,,,,,,,,,,,,,,,204,B,2026-03-30_17h06.09.755,exp_sofc_final,,2026.1.2,60.08391314657753,2026-03-30 17h06.11.754107 +0200,
,,,,,,,,,,,,,,,,,,,,,,,,,,,,,,,,,,,,,,,,,,,,,,,,,,,,204,B,2026-03-30_17h06.09.755,exp_sofc_final,,2026.1.2,60.08391314657753,2026-03-30 17h06.11.754107 +0200,
,0,0,0,,,,None,None,,,,,,,,,,,,,0,0,0,0,327.45753399981186,,,,,,,,,,,,,,,,clips/clip_claude_02_nosub_1.mp4,audios/silence.mp3,visual,[6.205728699918836],None,None,,,,,,204,B,2026-03-30_17h06.09.755,exp_sofc_final,,2026.1.2,60.08391314657753,2026-03-30 17h06.11.754107 +0200,
,1,0,1,,,,None,None,,,,,,,,,,,,,1,0,1,0,338.1454916000366,,,,,,,,,,,,,,,,clips/clip_dampf_03_nosub_1.mp4,audios/clip_dampf_03_nosub_1.mp3,audiovisual,[7.61478119995445],None,None,,,,,,204,B,2026-03-30_17h06.09.755,exp_sofc_final,,2026.1.2,60.08391314657753,2026-03-30 17h06.11.754107 +0200,
,2,0,2,,,,None,None,,,,,,,,,,,,,2,0,2,0,346.60658419970423,,,,,,,,,,,,,,,,clips/clip_herz_06_sub_2.mp4,audios/silence.mp3,visual,[],None,None,,,,,,204,B,2026-03-30_17h06.09.755,exp_sofc_final,,2026.1.2,60.08391314657753,2026-03-30 17h06.11.754107 +0200,
,3,0,3,,,,None,None,,,,,,,,,,,,,3,0,3,0,358.1183130997233,,,,,,,,,,,,,,,,clips/clip_claude_08_sub_0.mp4,audios/silence.mp3,visual,[],None,None,,,,,,204,B,2026-03-30_17h06.09.755,exp_sofc_final,,2026.1.2,60.08391314657753,2026-03-30 17h06.11.754107 +0200,
,4,0,4,,,,None,None,,,,,,,,,,,,,4,0,4,0,368.55676929978654,,,,,,,,,,,,,,,,clips/clip_lied_01_sub_1.mp4,audios/silence.mp3,visual,[0.4616016997024417],None,None,,,,,,204,B,2026-03-30_17h06.09.755,exp_sofc_final,,2026.1.2,60.08391314657753,2026-03-30 17h06.11.754107 +0200,
,5,0,5,,,,None,None,,,,,,,,,,,,,5,0,5,0,379.39467519987375,,,,,,,,,,,,,,,,clips/clip_claude_10_nosub_0.mp4,audios/silence.mp3,visual,[],None,None,,,,,,204,B,2026-03-30_17h06.09.755,exp_sofc_final,,2026.1.2,60.08391314657753,2026-03-30 17h06.11.754107 +0200,
,6,0,6,,,,3,None,34.56607379997149,None,,,,,,,,,,,6,0,6,0,391.5153508000076,,,,,,,,,,,,,,,,clips/clip_hund_34_sub_1.mp4,audios/clip_hund_34_sub_1.mp3,audiovisual,[],3,None,3,34.56607379997149,None,,,204,B,2026-03-30_17h06.09.755,exp_sofc_final,,2026.1.2,60.08391314657753,2026-03-30 17h06.11.754107 +0200,
,7,0,7,,,,None,None,,,,,,,,,,,,,7,0,7,0,437.5507735996507,,,,,,,,,,,,,,,,clips/clip_holo_18_sub_0.mp4,audios/clip_holo_18_sub_0.mp3,audiovisual,"[6.388692999724299, 9.153255099896342]",None,None,,,,,,204,B,2026-03-30_17h06.09.755,exp_sofc_final,,2026.1.2,60.08391314657753,2026-03-30 17h06.11.754107 +0200,
,8,0,8,,,,None,None,,,,,,,,,,,,,8,0,8,0,450.27880359999835,,,,,,,,,,,,,,,,clips/clip_hund_18_nosub_1.mp4,audios/silence.mp3,visual,"[0.049604800064116716, 6.778279500082135]",None,None,,,,,,204,B,2026-03-30_17h06.09.755,exp_sofc_final,,2026.1.2,60.08391314657753,2026-03-30 17h06.11.754107 +0200,
,9,0,9,,,,None,None,,,,,,,,,,,,,9,0,9,0,461.1176301999949,,,,,,,,,,,,,,,,clips/clip_dampf_01_sub_0.mp4,audios/clip_dampf_01_sub_0.mp3,audiovisual,[],None,None,,,,,,204,B,2026-03-30_17h06.09.755,exp_sofc_final,,2026.1.2,60.08391314657753,2026-03-30 17h06.11.754107 +0200,
,10,0,10,,,,None,None,,,,,,,,,,,,,10,0,10,0,471.4479454997927,,,,,,,,,,,,,,,,clips/clip_claude_17_sub_1.mp4,audios/clip_claude_17_sub_1.mp3,audiovisual,[10.277785900048912],None,None,,,,,,204,B,2026-03-30_17h06.09.755,exp_sofc_final,,2026.1.2,60.08391314657753,2026-03-30 17h06.11.754107 +0200,
,11,0,11,,,,None,None,,,,,,,,,,,,,11,0,11,0,483.84863939974457,,,,,,,,,,,,,,,,clips/clip_weißt_01_sub_1.mp4,audios/clip_weißt_01_sub_1.mp3,audiovisual,[6.174503299873322],None,None,,,,,,204,B,2026-03-30_17h06.09.755,exp_sofc_final,,2026.1.2,60.08391314657753,2026-03-30 17h06.11.754107 +0200,
,12,0,12,,,,None,None,,,,,,,,,,,,,12,0,12,0,495.7076975000091,,,,,,,,,,,,,,,,clips/clip_weißt_17_nosub_0.mp4,audios/silence.mp3,visual,[],None,None,,,,,,204,B,2026-03-30_17h06.09.755,exp_sofc_final,,2026.1.2,60.08391314657753,2026-03-30 17h06.11.754107 +0200,
,13,0,13,,,,None,None,,,,,,,,,,,,,13,0,13,0,508.1481653000228,,,,,,,,,,,,,,,,clips/clip_wurst_35_sub_0.mp4,audios/clip_wurst_35_sub_0.mp3,audiovisual,[],None,None,,,,,,204,B,2026-03-30_17h06.09.755,exp_sofc_final,,2026.1.2,60.08391314657753,2026-03-30 17h06.11.754107 +0200,
,14,0,14,,,,None,None,,,,,,,,,,,,,14,0,14,0,518.2948463000357,,,,,,,,,,,,,,,,clips/clip_wurst_18_sub_0.mp4,audios/silence.mp3,visual,[],None,None,,,,,,204,B,2026-03-30_17h06.09.755,exp_sofc_final,,2026.1.2,60.08391314657753,2026-03-30 17h06.11.754107 +0200,
,15,0,15,,,,None,None,,,,,,,,,,,,,15,0,15,0,529.2466376000084,,,,,,,,,,,,,,,,clips/clip_wurst_01_sub_0.mp4,audios/clip_wurst_01_sub_0.mp3,audiovisual,[],None,None,,,,,,204,B,2026-03-30_17h06.09.755,exp_sofc_final,,2026.1.2,60.08391314657753,2026-03-30 17h06.11.754107 +0200,
,16,0,16,,,,None,None,,,,,,,,,,,,,16,0,16,0,540.0301230996847,,,,,,,,,,,,,,,,clips/clip_hund_36_nosub_2.mp4,audios/clip_hund_36_nosub_2.mp3,audiovisual,[],None,None,,,,,,204,B,2026-03-30_17h06.09.755,exp_sofc_final,,2026.1.2,60.08391314657753,2026-03-30 17h06.11.754107 +0200,
,17,0,17,,,,4,None,4.791757399681956,None,,,,,,,,,,,17,0,17,0,550.0508731999435,,,,,,,,,,,,,,,,clips/clip_hund_01_nosub_0.mp4,audios/clip_hund_01_nosub_0.mp3,audiovisual,[],4,None,4,4.791757399681956,None,,,204,B,2026-03-30_17h06.09.755,exp_sofc_final,,2026.1.2,60.08391314657753,2026-03-30 17h06.11.754107 +0200,
,18,0,18,,,,None,None,,,,,,,,,,,,,18,0,18,0,566.5787100996822,,,,,,,,,,,,,,,,clips/clip_hund_10_nosub_0.mp4,audios/silence.mp3,visual,[7.989925399888307],None,None,,,,,,204,B,2026-03-30_17h06.09.755,exp_sofc_final,,2026.1.2,60.08391314657753,2026-03-30 17h06.11.754107 +0200,
,19,0,19,,,,None,None,,,,,,,,,,,,,19,0,19,0,576.9452911000699,,,,,,,,,,,,,,,,clips/clip_hund_15_nosub_1.mp4,audios/clip_hund_15_nosub_1.mp3,audiovisual,[4.6648736000061035],None,None,,,,,,204,B,2026-03-30_17h06.09.755,exp_sofc_final,,2026.1.2,60.08391314657753,2026-03-30 17h06.11.754107 +0200,
,20,0,20,,,,None,None,,,,,,,,,,,,,20,0,20,0,588.3167775999755,,,,,,,,,,,,,,,,clips/clip_lied_06_sub_1.mp4,audios/clip_lied_06_sub_1.mp3,audiovisual,[],None,None,,,,,,204,B,2026-03-30_17h06.09.755,exp_sofc_final,,2026.1.2,60.08391314657753,2026-03-30 17h06.11.754107 +0200,
,21,0,21,,,,None,None,,,,,,,,,,,,,21,0,21,0,601.8561895000748,,,,,,,,,,,,,,,,clips/clip_hund_21_sub_1.mp4,audios/clip_hund_21_sub_1.mp3,audiovisual,[6.29465620033443],None,None,,,,,,204,B,2026-03-30_17h06.09.755,exp_sofc_final,,2026.1.2,60.08391314657753,2026-03-30 17h06.11.754107 +0200,
,22,0,22,,,,None,None,,,,,,,,,,,,,22,0,22,0,612.6460796999745,,,,,,,,,,,,,,,,clips/clip_holo_20_nosub_1.mp4,audios/clip_holo_20_nosub_1.mp3,audiovisual,[],None,None,,,,,,204,B,2026-03-30_17h06.09.755,exp_sofc_final,,2026.1.2,60.08391314657753,2026-03-30 17h06.11.754107 +0200,
,23,0,23,,,,None,None,,,,,,,,,,,,,23,0,23,0,622.9300191998482,,,,,,,,,,,,,,,,clips/clip_herz_02_sub_0.mp4,audios/silence.mp3,visual,[9.056088999845088],None,None,,,,,,204,B,2026-03-30_17h06.09.755,exp_sofc_final,,2026.1.2,60.08391314657753,2026-03-30 17h06.11.754107 +0200,
,24,0,24,,,,None,None,,,,,,,,,,,,,24,0,24,0,636.2700175000355,,,,,,,,,,,,,,,,clips/clip_claude_14_nosub_0.mp4,audios/silence.mp3,visual,"[3.0405048998072743, 8.909112999681383]",None,None,,,,,,204,B,2026-03-30_17h06.09.755,exp_sofc_final,,2026.1.2,60.08391314657753,2026-03-30 17h06.11.754107 +0200,
,25,0,25,,,,None,None,,,,,,,,,,,,,25,0,25,0,648.1869961996563,,,,,,,,,,,,,,,,clips/clip_hund_05_nosub_0.mp4,audios/silence.mp3,visual,[3.992651400156319],None,None,,,,,,204,B,2026-03-30_17h06.09.755,exp_sofc_final,,2026.1.2,60.08391314657753,2026-03-30 17h06.11.754107 +0200,
,26,0,26,,,,None,None,,,,,,,,,,,,,26,0,26,0,660.0499440999702,,,,,,,,,,,,,,,,clips/clip_wurst_17_nosub_0.mp4,audios/clip_wurst_17_nosub_0.mp3,audiovisual,[0.38424789998680353],None,None,,,,,,204,B,2026-03-30_17h06.09.755,exp_sofc_final,,2026.1.2,60.08391314657753,2026-03-30 17h06.11.754107 +0200,
,27,0,27,,,,1,None,2.779942899942398,None,,,,,,,,,,,27,0,27,0,668.9038712000474,,,,,,,,,,,,,,,,clips/clip_wurst_24_nosub_1.mp4,audios/silence.mp3,visual,[],1,None,1,2.779942899942398,None,,,204,B,2026-03-30_17h06.09.755,exp_sofc_final,,2026.1.2,60.08391314657753,2026-03-30 17h06.11.754107 +0200,
,28,0,28,,,,3,None,2.704418399836868,None,,,,,,,,,,,28,0,28,0,683.9892140999436,,,,,,,,,,,,,,,,clips/clip_hund_14_nosub_2.mp4,audios/silence.mp3,visual,[5.686259699985385],3,None,3,2.704418399836868,None,,,204,B,2026-03-30_17h06.09.755,exp_sofc_final,,2026.1.2,60.08391314657753,2026-03-30 17h06.11.754107 +0200,
,29,0,29,,,,None,None,,,,,,,,,,,,,29,0,29,0,697.5561131997965,,,,,,,,,,,,,,,,clips/clip_holo_06_sub_2.mp4,audios/clip_holo_06_sub_2.mp3,audiovisual,[8.993404400069267],None,None,,,,,,204,B,2026-03-30_17h06.09.755,exp_sofc_final,,2026.1.2,60.08391314657753,2026-03-30 17h06.11.754107 +0200,
,30,0,30,,,,None,None,,,,,,,,,,,,,30,0,30,0,708.0145756998099,,,,,,,,,,,,,,,,clips/clip_lied_21_nosub_2.mp4,audios/clip_lied_21_nosub_2.mp3,audiovisual,"[5.022396199870855, 11.462741899769753]",None,None,,,,,,204,B,2026-03-30_17h06.09.755,exp_sofc_final,,2026.1.2,60.08391314657753,2026-03-30 17h06.11.754107 +0200,
,31,0,31,,,,2,None,4.000039599835873,None,,,,,,,,,,,31,0,31,0,720.4078299999237,,,,,,,,,,,,,,,,clips/clip_lied_12_nosub_0.mp4,audios/clip_lied_12_nosub_0.mp3,audiovisual,[],2,None,2,4.000039599835873,None,,,204,B,2026-03-30_17h06.09.755,exp_sofc_final,,2026.1.2,60.08391314657753,2026-03-30 17h06.11.754107 +0200,
,32,0,32,,,,None,None,,,,,,,,,,,,,32,0,32,0,734.4019070998766,,,,,,,,,,,,,,,,clips/clip_claude_24_sub_1.mp4,audios/silence.mp3,visual,[5.97359020030126],None,None,,,,,,204,B,2026-03-30_17h06.09.755,exp_sofc_final,,2026.1.2,60.08391314657753,2026-03-30 17h06.11.754107 +0200,
,33,0,33,,,,None,None,,,,,,,,,,,,,33,0,33,0,741.3284669998102,,,,,,,,,,,,,,,,clips/clip_holo_26_sub_2.mp4,audios/silence.mp3,visual,"[6.064337099902332, 7.926028599962592]",None,None,,,,,,204,B,2026-03-30_17h06.09.755,exp_sofc_final,,2026.1.2,60.08391314657753,2026-03-30 17h06.11.754107 +0200,
,34,0,34,,,,None,None,,,,,,,,,,,,,34,0,34,0,751.4212308996357,,,,,,,,,,,,,,,,clips/clip_weißt_29_nosub_1.mp4,audios/clip_weißt_29_nosub_1.mp3,audiovisual,[6.710754500236362],None,None,,,,,,204,B,2026-03-30_17h06.09.755,exp_sofc_final,,2026.1.2,60.08391314657753,2026-03-30 17h06.11.754107 +0200,
,35,0,35,,,,None,None,,,,,,,,,,,,,35,0,35,0,763.7926567997783,,,,,,,,,,,,,,,,clips/clip_holo_28_nosub_0.mp4,audios/silence.mp3,visual,[],None,None,,,,,,204,B,2026-03-30_17h06.09.755,exp_sofc_final,,2026.1.2,60.08391314657753,2026-03-30 17h06.11.754107 +0200,
,36,0,36,,,,None,None,,,,,,,,,,,,,36,0,36,0,773.1608954998665,,,,,,,,,,,,,,,,clips/clip_lied_18_sub_2.mp4,audios/silence.mp3,visual,"[5.389263999648392, 7.427881599869579]",None,None,,,,,,204,B,2026-03-30_17h06.09.755,exp_sofc_final,,2026.1.2,60.08391314657753,2026-03-30 17h06.11.754107 +0200,
,37,0,37,,,,None,None,,,,,,,,,,,,,37,0,37,0,784.7317904997617,,,,,,,,,,,,,,,,clips/clip_claude_11_nosub_0.mp4,audios/clip_claude_11_nosub_0.mp3,audiovisual,[8.38685980020091],None,None,,,,,,204,B,2026-03-30_17h06.09.755,exp_sofc_final,,2026.1.2,60.08391314657753,2026-03-30 17h06.11.754107 +0200,
,38,0,38,,,,None,None,,,,,,,,,,,,,38,0,38,0,795.6466792998835,,,,,,,,,,,,,,,,clips/clip_hund_20_sub_0.mp4,audios/silence.mp3,visual,[],None,None,,,,,,204,B,2026-03-30_17h06.09.755,exp_sofc_final,,2026.1.2,60.08391314657753,2026-03-30 17h06.11.754107 +0200,
,39,0,39,,,,None,None,,,,,,,,,,,,,39,0,39,0,808.058765700087,,,,,,,,,,,,,,,,clips/clip_wurst_32_nosub_1.mp4,audios/silence.mp3,visual,[7.173330099787563],None,None,,,,,,204,B,2026-03-30_17h06.09.755,exp_sofc_final,,2026.1.2,60.08391314657753,2026-03-30 17h06.11.754107 +0200,
,40,0,40,,,,1,None,3.4454017002135515,None,,,,,,,,,,,40,0,40,0,819.4958676998504,,,,,,,,,,,,,,,,clips/clip_holo_09_sub_2.mp4,audios/silence.mp3,visual,[0.42569660022854805],1,None,1,3.4454017002135515,None,,,204,B,2026-03-30_17h06.09.755,exp_sofc_final,,2026.1.2,60.08391314657753,2026-03-30 17h06.11.754107 +0200,
,41,0,41,,,,2,None,3.3625695002265275,None,,,,,,,,,,,41,0,41,0,835.3055785996839,,,,,,,,,,,,,,,,clips/clip_wurst_07_nosub_0.mp4,audios/silence.mp3,visual,[],2,None,2,3.3625695002265275,None,,,204,B,2026-03-30_17h06.09.755,exp_sofc_final,,2026.1.2,60.08391314657753,2026-03-30 17h06.11.754107 +0200,
,42,0,42,,,,None,None,,,,,,,,,,,,,42,0,42,0,849.6336567997932,,,,,,,,,,,,,,,,clips/clip_holo_16_nosub_1.mp4,audios/clip_holo_16_nosub_1.mp3,audiovisual,[10.155332800000906],None,None,,,,,,204,B,2026-03-30_17h06.09.755,exp_sofc_final,,2026.1.2,60.08391314657753,2026-03-30 17h06.11.754107 +0200,
,43,0,43,,,,None,None,,,,,,,,,,,,,43,0,43,0,862.4720422998071,,,,,,,,,,,,,,,,clips/clip_holo_11_nosub_2.mp4,audios/silence.mp3,visual,"[5.612174000125378, 9.043917200062424]",None,None,,,,,,204,B,2026-03-30_17h06.09.755,exp_sofc_final,,2026.1.2,60.08391314657753,2026-03-30 17h06.11.754107 +0200,
,44,0,44,,,,4,None,3.3674923996441066,None,,,,,,,,,,,44,0,44,0,873.0909775998443,,,,,,,,,,,,,,,,clips/clip_claude_09_sub_2.mp4,audios/clip_claude_09_sub_2.mp3,audiovisual,"[3.963992000091821, 8.694759500212967]",4,None,4,3.3674923996441066,None,,,204,B,2026-03-30_17h06.09.755,exp_sofc_final,,2026.1.2,60.08391314657753,2026-03-30 17h06.11.754107 +0200,
,45,0,45,,,,None,None,,,,,,,,,,,,,45,0,45,0,887.575755899772,,,,,,,,,,,,,,,,clips/clip_hund_16_sub_1.mp4,audios/silence.mp3,visual,[],None,None,,,,,,204,B,2026-03-30_17h06.09.755,exp_sofc_final,,2026.1.2,60.08391314657753,2026-03-30 17h06.11.754107 +0200,
,46,0,46,,,,None,None,,,,,,,,,,,,,46,0,46,0,899.3253092998639,,,,,,,,,,,,,,,,clips/clip_holo_27_sub_1.mp4,audios/clip_holo_27_sub_1.mp3,audiovisual,[5.437687800265849],None,None,,,,,,204,B,2026-03-30_17h06.09.755,exp_sofc_final,,2026.1.2,60.08391314657753,2026-03-30 17h06.11.754107 +0200,
,47,0,47,,,,3,None,4.081507400143892,None,,,,,,,,,,,47,0,47,0,910.1145208999515,,,,,,,,,,,,,,,,clips/clip_lied_16_nosub_2.mp4,audios/silence.mp3,visual,"[3.838531699962914, 6.417866900097579]",3,None,1,4.081507400143892,None,,,204,B,2026-03-30_17h06.09.755,exp_sofc_final,,2026.1.2,60.08391314657753,2026-03-30 17h06.11.754107 +0200,
,48,0,48,,,,None,None,,,,,,,,,,,,,48,0,48,0,926.3302551000379,,,,,,,,,,,,,,,,clips/clip_holo_19_nosub_1.mp4,audios/silence.mp3,visual,[6.359305799938738],None,None,,,,,,204,B,2026-03-30_17h06.09.755,exp_sofc_final,,2026.1.2,60.08391314657753,2026-03-30 17h06.11.754107 +0200,
,49,0,49,,,,None,None,,,,,,,,,,,,,49,0,49,0,936.7164408997633,,,,,,,,,,,,,,,,clips/clip_weißt_11_sub_0.mp4,audios/silence.mp3,visual,[],None,None,,,,,,204,B,2026-03-30_17h06.09.755,exp_sofc_final,,2026.1.2,60.08391314657753,2026-03-30 17h06.11.754107 +0200,
,50,0,50,,,,None,None,,,,,,,,,,,,,50,0,50,0,947.6408881996758,,,,,,,,,,,,,,,,clips/clip_holo_12_nosub_1.mp4,audios/clip_holo_12_nosub_1.mp3,audiovisual,[8.452277599833906],None,None,,,,,,204,B,2026-03-30_17h06.09.755,exp_sofc_final,,2026.1.2,60.08391314657753,2026-03-30 17h06.11.754107 +0200,
,51,0,51,,,,None,None,,,,,,,,,,,,,51,0,51,0,958.4533782997169,,,,,,,,,,,,,,,,clips/clip_wurst_22_sub_0.mp4,audios/silence.mp3,visual,[],None,None,,,,,,204,B,2026-03-30_17h06.09.755,exp_sofc_final,,2026.1.2,60.08391314657753,2026-03-30 17h06.11.754107 +0200,
,52,0,52,,,,None,None,,,,,,,,,,,,,52,0,52,0,971.0071070999838,,,,,,,,,,,,,,,,clips/clip_claude_29_sub_0.mp4,audios/silence.mp3,visual,[],None,None,,,,,,204,B,2026-03-30_17h06.09.755,exp_sofc_final,,2026.1.2,60.08391314657753,2026-03-30 17h06.11.754107 +0200,
,53,0,53,,,,None,None,,,,,,,,,,,,,53,0,53,0,981.9033454000019,,,,,,,,,,,,,,,,clips/clip_claude_21_sub_1.mp4,audios/clip_claude_21_sub_1.mp3,audiovisual,[9.690933200065047],None,None,,,,,,204,B,2026-03-30_17h06.09.755,exp_sofc_final,,2026.1.2,60.08391314657753,2026-03-30 17h06.11.754107 +0200,
,54,0,54,,,,None,None,,,,,,,,,,,,,54,0,54,0,995.0386932999827,,,,,,,,,,,,,,,,clips/clip_herz_03_sub_2.mp4,audios/clip_herz_03_sub_2.mp3,audiovisual,"[4.534781700000167, 11.290661999955773]",None,None,,,,,,204,B,2026-03-30_17h06.09.755,exp_sofc_final,,2026.1.2,60.08391314657753,2026-03-30 17h06.11.754107 +0200,
,55,0,55,,,,1,None,2.918647900223732,None,,,,,,,,,,,55,0,55,0,1008.2888004998676,,,,,,,,,,,,,,,,clips/clip_claude_04_sub_2.mp4,audios/silence.mp3,visual,[8.415203699842095],1,None,1,2.918647900223732,None,,,204,B,2026-03-30_17h06.09.755,exp_sofc_final,,2026.1.2,60.08391314657753,2026-03-30 17h06.11.754107 +0200,
,56,0,56,,,,None,None,,,,,,,,,,,,,56,0,56,0,1021.3127069999464,,,,,,,,,,,,,,,,clips/clip_herz_05_nosub_0.mp4,audios/clip_herz_05_nosub_0.mp3,audiovisual,[5.884098500013351],None,None,,,,,,204,B,2026-03-30_17h06.09.755,exp_sofc_final,,2026.1.2,60.08391314657753,2026-03-30 17h06.11.754107 +0200,
,57,0,57,,,,None,None,,,,,,,,,,,,,57,0,57,0,1032.4765236997046,,,,,,,,,,,,,,,,clips/clip_claude_25_sub_0.mp4,audios/clip_claude_25_sub_0.mp3,audiovisual,[],None,None,,,,,,204,B,2026-03-30_17h06.09.755,exp_sofc_final,,2026.1.2,60.08391314657753,2026-03-30 17h06.11.754107 +0200,
,58,0,58,,,,None,None,,,,,,,,,,,,,58,0,58,0,1043.5084294998087,,,,,,,,,,,,,,,,clips/clip_holo_14_sub_0.mp4,audios/clip_holo_14_sub_0.mp3,audiovisual,[0.655211600009352],None,None,,,,,,204,B,2026-03-30_17h06.09.755,exp_sofc_final,,2026.1.2,60.08391314657753,2026-03-30 17h06.11.754107 +0200,
,59,0,59,,,,None,space,,,0.35498399985954165,None,,,,,,,,,59,0,59,0,1054.3770705997013,,,,,,,,,,,,,,,,clips/clip_herz_16_nosub_0.mp4,audios/silence.mp3,visual,[],None,space,,,,0.35498399985954165,None,204,B,2026-03-30_17h06.09.755,exp_sofc_final,,2026.1.2,60.08391314657753,2026-03-30 17h06.11.754107 +0200,
,60,0,60,,,,4,None,4.222777199931443,None,,,,,,,,,,,60,0,60,0,1064.6087004998699,,,,,,,,,,,,,,,,clips/clip_hund_23_nosub_1.mp4,audios/clip_hund_23_nosub_1.mp3,audiovisual,[],4,None,4,4.222777199931443,None,,,204,B,2026-03-30_17h06.09.755,exp_sofc_final,,2026.1.2,60.08391314657753,2026-03-30 17h06.11.754107 +0200,
,61,0,61,,,,None,None,,,,,,,,,,,,,61,0,61,0,1080.690648399759,,,,,,,,,,,,,,,,clips/clip_dampf_02_nosub_1.mp4,audios/silence.mp3,visual,[4.9722611997276545],None,None,,,,,,204,B,2026-03-30_17h06.09.755,exp_sofc_final,,2026.1.2,60.08391314657753,2026-03-30 17h06.11.754107 +0200,
,62,0,62,,,,None,None,,,,,,,,,,,,,62,0,62,0,1090.758211299777,,,,,,,,,,,,,,,,clips/clip_hund_32_sub_1.mp4,audios/silence.mp3,visual,[4.797578599769622],None,None,,,,,,204,B,2026-03-30_17h06.09.755,exp_sofc_final,,2026.1.2,60.08391314657753,2026-03-30 17h06.11.754107 +0200,
,63,0,63,,,,None,None,,,,,,,,,,,,,63,0,63,0,1101.6782243996859,,,,,,,,,,,,,,,,clips/clip_wurst_11_sub_0.mp4,audios/clip_wurst_11_sub_0.mp3,audiovisual,[],None,None,,,,,,204,B,2026-03-30_17h06.09.755,exp_sofc_final,,2026.1.2,60.08391314657753,2026-03-30 17h06.11.754107 +0200,
,64,0,64,,,,None,None,,,,,,,,,,,,,64,0,64,0,1114.5393735999241,,,,,,,,,,,,,,,,clips/clip_claude_18_nosub_0.mp4,audios/silence.mp3,visual,[],None,None,,,,,,204,B,2026-03-30_17h06.09.755,exp_sofc_final,,2026.1.2,60.08391314657753,2026-03-30 17h06.11.754107 +0200,
,65,0,65,,,,None,None,,,,,,,,,,,,,65,0,65,0,1124.3913902998902,,,,,,,,,,,,,,,,clips/clip_claude_22_nosub_2.mp4,audios/silence.mp3,visual,[8.03410270018503],None,None,,,,,,204,B,2026-03-30_17h06.09.755,exp_sofc_final,,2026.1.2,60.08391314657753,2026-03-30 17h06.11.754107 +0200,
,66,0,66,,,,None,None,,,,,,,,,,,,,66,0,66,0,1136.0892243999988,,,,,,,,,,,,,,,,clips/clip_weißt_27_sub_1.mp4,audios/clip_weißt_27_sub_1.mp3,audiovisual,[7.927577700000256],None,None,,,,,,204,B,2026-03-30_17h06.09.755,exp_sofc_final,,2026.1.2,60.08391314657753,2026-03-30 17h06.11.754107 +0200,
,67,0,67,,,,None,None,,,,,,,,,,,,,67,0,67,0,1147.0874998997897,,,,,,,,,,,,,,,,clips/clip_herz_15_sub_0.mp4,audios/clip_herz_15_sub_0.mp3,audiovisual,[7.885206500068307],None,None,,,,,,204,B,2026-03-30_17h06.09.755,exp_sofc_final,,2026.1.2,60.08391314657753,2026-03-30 17h06.11.754107 +0200,
,68,0,68,,,,None,None,,,,,,,,,,,,,68,0,68,0,1159.9652356998995,,,,,,,,,,,,,,,,clips/clip_hund_30_nosub_0.mp4,audios/clip_hund_30_nosub_0.mp3,audiovisual,[],None,None,,,,,,204,B,2026-03-30_17h06.09.755,exp_sofc_final,,2026.1.2,60.08391314657753,2026-03-30 17h06.11.754107 +0200,
,69,0,69,,,,None,None,,,,,,,,,,,,,69,0,69,0,1172.93045850005,,,,,,,,,,,,,,,,clips/clip_holo_08_nosub_2.mp4,audios/clip_holo_08_nosub_2.mp3,audiovisual,"[4.223502099979669, 9.080234299879521]",None,None,,,,,,204,B,2026-03-30_17h06.09.755,exp_sofc_final,,2026.1.2,60.08391314657753,2026-03-30 17h06.11.754107 +0200,
,70,0,70,,,,None,None,,,,,,,,,,,,,70,0,70,0,1184.4933287999593,,,,,,,,,,,,,,,,clips/clip_holo_07_nosub_0.mp4,audios/silence.mp3,visual,[],None,None,,,,,,204,B,2026-03-30_17h06.09.755,exp_sofc_final,,2026.1.2,60.08391314657753,2026-03-30 17h06.11.754107 +0200,
,71,0,71,,,,None,None,,,,,,,,,,,,,71,0,71,0,1194.774016899988,,,,,,,,,,,,,,,,clips/clip_holo_10_sub_1.mp4,audios/clip_holo_10_sub_1.mp3,audiovisual,[6.021439800038934],None,None,,,,,,204,B,2026-03-30_17h06.09.755,exp_sofc_final,,2026.1.2,60.08391314657753,2026-03-30 17h06.11.754107 +0200,
,72,0,72,,,,None,None,,,,,,,,,,,,,72,0,72,0,1205.6676813997328,,,,,,,,,,,,,,,,clips/clip_hund_13_sub_1.mp4,audios/clip_hund_13_sub_1.mp3,audiovisual,[5.884521099738777],None,None,,,,,,204,B,2026-03-30_17h06.09.755,exp_sofc_final,,2026.1.2,60.08391314657753,2026-03-30 17h06.11.754107 +0200,
,73,0,73,,,,None,None,,,,,,,,,,,,,73,0,73,0,1218.28203890007,,,,,,,,,,,,,,,,clips/clip_herz_12_nosub_0.mp4,audios/silence.mp3,visual,[5.768537800293416],None,None,,,,,,204,B,2026-03-30_17h06.09.755,exp_sofc_final,,2026.1.2,60.08391314657753,2026-03-30 17h06.11.754107 +0200,
,74,0,74,,,,None,None,,,,,,,,,,,,,74,0,74,0,1228.292620100081,,,,,,,,,,,,,,,,clips/clip_wurst_06_sub_2.mp4,audios/clip_wurst_06_sub_2.mp3,audiovisual,"[2.559671100229025, 8.244124200195074]",None,None,,,,,,204,B,2026-03-30_17h06.09.755,exp_sofc_final,,2026.1.2,60.08391314657753,2026-03-30 17h06.11.754107 +0200,
,75,0,75,,,,None,None,,,,,,,,,,,,,75,0,75,0,1240.2425512000918,,,,,,,,,,,,,,,,clips/clip_holo_17_sub_0.mp4,audios/silence.mp3,visual,[],None,None,,,,,,204,B,2026-03-30_17h06.09.755,exp_sofc_final,,2026.1.2,60.08391314657753,2026-03-30 17h06.11.754107 +0200,
,76,0,76,,,,None,None,,,,,,,,,,,,,76,0,76,0,1250.9083847999573,,,,,,,,,,,,,,,,clips/clip_hund_03_sub_1.mp4,audios/silence.mp3,visual,[6.532213700003922],None,None,,,,,,204,B,2026-03-30_17h06.09.755,exp_sofc_final,,2026.1.2,60.08391314657753,2026-03-30 17h06.11.754107 +0200,
,77,0,77,,,,None,None,,,,,,,,,,,,,77,0,77,0,1263.6546235000715,,,,,,,,,,,,,,,,clips/clip_herz_09_nosub_0.mp4,audios/clip_herz_09_nosub_0.mp3,audiovisual,[],None,None,,,,,,204,B,2026-03-30_17h06.09.755,exp_sofc_final,,2026.1.2,60.08391314657753,2026-03-30 17h06.11.754107 +0200,
,78,0,78,,,,1,None,11.516794600058347,None,,,,,,,,,,,78,0,78,0,1276.0328561998904,,,,,,,,,,,,,,,,clips/clip_lied_20_nosub_2.mp4,audios/silence.mp3,visual,"[3.735818900167942, 8.2166687999852]",1,None,1,11.516794600058347,None,,,204,B,2026-03-30_17h06.09.755,exp_sofc_final,,2026.1.2,60.08391314657753,2026-03-30 17h06.11.754107 +0200,
,79,0,79,,,,None,None,,,,,,,,,,,,,79,0,79,0,1299.1672483999282,,,,,,,,,,,,,,,,clips/clip_wurst_34_sub_2.mp4,audios/silence.mp3,visual,[],None,None,,,,,,204,B,2026-03-30_17h06.09.755,exp_sofc_final,,2026.1.2,60.08391314657753,2026-03-30 17h06.11.754107 +0200,
,80,0,80,,,,None,None,,,,,,,,,,,,,80,0,80,0,1308.459433000069,,,,,,,,,,,,,,,,clips/clip_herz_14_sub_0.mp4,audios/silence.mp3,visual,[],None,None,,,,,,204,B,2026-03-30_17h06.09.755,exp_sofc_final,,2026.1.2,60.08391314657753,2026-03-30 17h06.11.754107 +0200,
,81,0,81,,,,None,None,,,,,,,,,,,,,81,0,81,0,1319.9273216999136,,,,,,,,,,,,,,,,clips/clip_weißt_23_nosub_1.mp4,audios/silence.mp3,visual,[8.288112400099635],None,None,,,,,,204,B,2026-03-30_17h06.09.755,exp_sofc_final,,2026.1.2,60.08391314657753,2026-03-30 17h06.11.754107 +0200,
,82,0,82,,,,None,None,,,,,,,,,,,,,82,0,82,0,1332.17329289997,,,,,,,,,,,,,,,,clips/clip_claude_06_nosub_1.mp4,audios/silence.mp3,visual,[3.9925740999169648],None,None,,,,,,204,B,2026-03-30_17h06.09.755,exp_sofc_final,,2026.1.2,60.08391314657753,2026-03-30 17h06.11.754107 +0200,
,83,0,83,,,,None,None,,,,,,,,,,,,,83,0,83,0,1345.6103944997303,,,,,,,,,,,,,,,,clips/clip_wurst_31_sub_1.mp4,audios/clip_wurst_31_sub_1.mp3,audiovisual,[],None,None,,,,,,204,B,2026-03-30_17h06.09.755,exp_sofc_final,,2026.1.2,60.08391314657753,2026-03-30 17h06.11.754107 +0200,
,84,0,84,,,,None,None,,,,,,,,,,,,,84,0,84,0,1357.4590447996743,,,,,,,,,,,,,,,,clips/clip_hund_17_sub_1.mp4,audios/clip_hund_17_sub_1.mp3,audiovisual,[10.36441530007869],None,None,,,,,,204,B,2026-03-30_17h06.09.755,exp_sofc_final,,2026.1.2,60.08391314657753,2026-03-30 17h06.11.754107 +0200,
,85,0,85,,,,None,None,,,,,,,,,,,,,85,0,85,0,1370.5500415000133,,,,,,,,,,,,,,,,clips/clip_holo_24_nosub_2.mp4,audios/clip_holo_24_nosub_2.mp3,audiovisual,"[6.947385599836707, 9.668151000048965]",None,None,,,,,,204,B,2026-03-30_17h06.09.755,exp_sofc_final,,2026.1.2,60.08391314657753,2026-03-30 17h06.11.754107 +0200,
,86,0,86,,,,None,None,,,,,,,,,,,,,86,0,86,0,1381.4517977000214,,,,,,,,,,,,,,,,clips/clip_lied_09_sub_1.mp4,audios/silence.mp3,visual,[],None,None,,,,,,204,B,2026-03-30_17h06.09.755,exp_sofc_final,,2026.1.2,60.08391314657753,2026-03-30 17h06.11.754107 +0200,
,87,0,87,,,,3,None,2.9037513001821935,None,,,,,,,,,,,87,0,87,0,1392.583757400047,,,,,,,,,,,,,,,,clips/clip_weißt_26_sub_1.mp4,audios/silence.mp3,visual,"[0.46038349997252226, 7.304167999885976]",3,None,4,2.9037513001821935,None,,,204,B,2026-03-30_17h06.09.755,exp_sofc_final,,2026.1.2,60.08391314657753,2026-03-30 17h06.11.754107 +0200,
,88,0,88,,,,None,None,,,,,,,,,,,,,88,0,88,0,1406.663223600015,,,,,,,,,,,,,,,,clips/clip_wurst_14_sub_1.mp4,audios/silence.mp3,visual,[8.099686400033534],None,None,,,,,,204,B,2026-03-30_17h06.09.755,exp_sofc_final,,2026.1.2,60.08391314657753,2026-03-30 17h06.11.754107 +0200,
,89,0,89,,,,None,None,,,,,,,,,,,,,89,0,89,0,1417.5123624997213,,,,,,,,,,,,,,,,clips/clip_weißt_08_nosub_0.mp4,audios/clip_weißt_08_nosub_0.mp3,audiovisual,[],None,None,,,,,,204,B,2026-03-30_17h06.09.755,exp_sofc_final,,2026.1.2,60.08391314657753,2026-03-30 17h06.11.754107 +0200,
,90,0,90,,,,None,None,,,,,,,,,,,,,90,0,90,0,1428.580275800079,,,,,,,,,,,,,,,,clips/clip_weißt_03_nosub_0.mp4,audios/clip_weißt_03_nosub_0.mp3,audiovisual,[],None,None,,,,,,204,B,2026-03-30_17h06.09.755,exp_sofc_final,,2026.1.2,60.08391314657753,2026-03-30 17h06.11.754107 +0200,
,91,0,91,,,,None,None,,,,,,,,,,,,,91,0,91,0,1441.4624466998503,,,,,,,,,,,,,,,,clips/clip_wurst_27_sub_1.mp4,audios/clip_wurst_27_sub_1.mp3,audiovisual,[6.091734099667519],None,None,,,,,,204,B,2026-03-30_17h06.09.755,exp_sofc_final,,2026.1.2,60.08391314657753,2026-03-30 17h06.11.754107 +0200,
,92,0,92,,,,4,None,5.072298599872738,None,,,,,,,,,,,92,0,92,0,1452.521231699735,,,,,,,,,,,,,,,,clips/clip_holo_22_sub_1.mp4,audios/clip_holo_22_sub_1.mp3,audiovisual,[9.321572599932551],4,None,4,5.072298599872738,None,,,204,B,2026-03-30_17h06.09.755,exp_sofc_final,,2026.1.2,60.08391314657753,2026-03-30 17h06.11.754107 +0200,
,93,0,93,,,,None,None,,,,,,,,,,,,,93,0,93,0,1467.7421502000652,,,,,,,,,,,,,,,,clips/clip_lied_08_nosub_1.mp4,audios/clip_lied_08_nosub_1.mp3,audiovisual,[7.379941500257701],None,None,,,,,,204,B,2026-03-30_17h06.09.755,exp_sofc_final,,2026.1.2,60.08391314657753,2026-03-30 17h06.11.754107 +0200,
,94,0,94,,,,None,None,,,,,,,,,,,,,94,0,94,0,1477.6248484998941,,,,,,,,,,,,,,,,clips/clip_wurst_04_nosub_2.mp4,audios/clip_wurst_04_nosub_2.mp3,audiovisual,[1.4705465002916753],None,None,,,,,,204,B,2026-03-30_17h06.09.755,exp_sofc_final,,2026.1.2,60.08391314657753,2026-03-30 17h06.11.754107 +0200,
,95,0,95,,,,None,None,,,,,,,,,,,,,95,0,95,0,1490.0950356996618,,,,,,,,,,,,,,,,clips/clip_wurst_36_nosub_0.mp4,audios/silence.mp3,visual,[],None,None,,,,,,204,B,2026-03-30_17h06.09.755,exp_sofc_final,,2026.1.2,60.08391314657753,2026-03-30 17h06.11.754107 +0200,
,96,0,96,,,,None,None,,,,,,,,,,,,,96,0,96,0,1500.8012148998678,,,,,,,,,,,,,,,,clips/clip_holo_05_sub_2.mp4,audios/silence.mp3,visual,[7.045535899698734],None,None,,,,,,204,B,2026-03-30_17h06.09.755,exp_sofc_final,,2026.1.2,60.08391314657753,2026-03-30 17h06.11.754107 +0200,
,97,0,97,,,,None,None,,,,,,,,,,,,,97,0,97,0,1511.345539599657,,,,,,,,,,,,,,,,clips/clip_hund_29_nosub_0.mp4,audios/silence.mp3,visual,[10.447965500410646],None,None,,,,,,204,B,2026-03-30_17h06.09.755,exp_sofc_final,,2026.1.2,60.08391314657753,2026-03-30 17h06.11.754107 +0200,
,98,0,98,,,,None,None,,,,,,,,,,,,,98,0,98,0,1523.5054068998434,,,,,,,,,,,,,,,,clips/clip_hund_04_sub_0.mp4,audios/clip_hund_04_sub_0.mp3,audiovisual,[],None,None,,,,,,204,B,2026-03-30_17h06.09.755,exp_sofc_final,,2026.1.2,60.08391314657753,2026-03-30 17h06.11.754107 +0200,
,99,0,99,,,,4,None,2.639814500231296,None,,,,,,,,,,,99,0,99,0,1533.8571823998354,,,,,,,,,,,,,,,,clips/clip_weißt_06_sub_0.mp4,audios/clip_weißt_06_sub_0.mp3,audiovisual,[5.557256399653852],4,None,4,2.639814500231296,None,,,204,B,2026-03-30_17h06.09.755,exp_sofc_final,,2026.1.2,60.08391314657753,2026-03-30 17h06.11.754107 +0200,
,100,0,100,,,,None,None,,,,,,,,,,,,,100,0,100,0,1547.8344290996902,,,,,,,,,,,,,,,,clips/clip_wurst_25_nosub_1.mp4,audios/clip_wurst_25_nosub_1.mp3,audiovisual,[],None,None,,,,,,204,B,2026-03-30_17h06.09.755,exp_sofc_final,,2026.1.2,60.08391314657753,2026-03-30 17h06.11.754107 +0200,
,101,0,101,,,,None,None,,,,,,,,,,,,,101,0,101,0,1559.8551882999018,,,,,,,,,,,,,,,,clips/clip_weißt_07_nosub_1.mp4,audios/silence.mp3,visual,[],None,None,,,,,,204,B,2026-03-30_17h06.09.755,exp_sofc_final,,2026.1.2,60.08391314657753,2026-03-30 17h06.11.754107 +0200,
,102,0,102,,,,None,None,,,,,,,,,,,,,102,0,102,0,1570.4045628998429,,,,,,,,,,,,,,,,clips/clip_herz_04_nosub_0.mp4,audios/silence.mp3,visual,[],None,None,,,,,,204,B,2026-03-30_17h06.09.755,exp_sofc_final,,2026.1.2,60.08391314657753,2026-03-30 17h06.11.754107 +0200,
,103,0,103,,,,None,None,,,,,,,,,,,,,103,0,103,0,1582.3233737000264,,,,,,,,,,,,,,,,clips/clip_wurst_23_sub_2.mp4,audios/clip_wurst_23_sub_2.mp3,audiovisual,"[3.418971700128168, 7.797656599897891]",None,None,,,,,,204,B,2026-03-30_17h06.09.755,exp_sofc_final,,2026.1.2,60.08391314657753,2026-03-30 17h06.11.754107 +0200,
,104,0,104,,,,2,None,2.5002469001337886,None,,,,,,,,,,,104,0,104,0,1593.7561663999222,,,,,,,,,,,,,,,,clips/clip_hund_22_nosub_1.mp4,audios/silence.mp3,visual,[8.530892099719495],2,None,2,2.5002469001337886,None,,,204,B,2026-03-30_17h06.09.755,exp_sofc_final,,2026.1.2,60.08391314657753,2026-03-30 17h06.11.754107 +0200,
,105,0,105,,,,None,None,,,,,,,,,,,,,105,0,105,0,1607.065221299883,,,,,,,,,,,,,,,,clips/clip_wurst_03_nosub_1.mp4,audios/silence.mp3,visual,[4.265907100401819],None,None,,,,,,204,B,2026-03-30_17h06.09.755,exp_sofc_final,,2026.1.2,60.08391314657753,2026-03-30 17h06.11.754107 +0200,
,106,0,106,,,,None,None,,,,,,,,,,,,,106,0,106,0,1619.7986627998762,,,,,,,,,,,,,,,,clips/clip_holo_13_sub_1.mp4,audios/silence.mp3,visual,"[0.4022746002301574, 4.148808300029486]",None,None,,,,,,204,B,2026-03-30_17h06.09.755,exp_sofc_final,,2026.1.2,60.08391314657753,2026-03-30 17h06.11.754107 +0200,
,107,0,107,,,,None,None,,,,,,,,,,,,,107,0,107,0,1632.5151931997389,,,,,,,,,,,,,,,,clips/clip_dampf_06_nosub_2.mp4,audios/silence.mp3,visual,[],None,None,,,,,,204,B,2026-03-30_17h06.09.755,exp_sofc_final,,2026.1.2,60.08391314657753,2026-03-30 17h06.11.754107 +0200,
,108,0,108,,,,None,None,,,,,,,,,,,,,108,0,108,0,1642.351412099786,,,,,,,,,,,,,,,,clips/clip_weißt_15_sub_1.mp4,audios/silence.mp3,visual,[],None,None,,,,,,204,B,2026-03-30_17h06.09.755,exp_sofc_final,,2026.1.2,60.08391314657753,2026-03-30 17h06.11.754107 +0200,
,109,0,109,,,,None,None,,,,,,,,,,,,,109,0,109,0,1654.2609002999961,,,,,,,,,,,,,,,,clips/clip_claude_03_nosub_1.mp4,audios/clip_claude_03_nosub_1.mp3,audiovisual,[5.059965800028294],None,None,,,,,,204,B,2026-03-30_17h06.09.755,exp_sofc_final,,2026.1.2,60.08391314657753,2026-03-30 17h06.11.754107 +0200,
,110,0,110,,,,None,None,,,,,,,,,,,,,110,0,110,0,1666.5702947997488,,,,,,,,,,,,,,,,clips/clip_hund_08_sub_1.mp4,audios/silence.mp3,visual,[],None,None,,,,,,204,B,2026-03-30_17h06.09.755,exp_sofc_final,,2026.1.2,60.08391314657753,2026-03-30 17h06.11.754107 +0200,
,111,0,111,,,,None,None,,,,,,,,,,,,,111,0,111,0,1677.4449084997177,,,,,,,,,,,,,,,,clips/clip_wurst_13_nosub_0.mp4,audios/clip_wurst_13_nosub_0.mp3,audiovisual,[],None,None,,,,,,204,B,2026-03-30_17h06.09.755,exp_sofc_final,,2026.1.2,60.08391314657753,2026-03-30 17h06.11.754107 +0200,
,112,0,112,,,,None,None,,,,,,,,,,,,,112,0,112,0,1688.219704200048,,,,,,,,,,,,,,,,clips/clip_weißt_13_nosub_0.mp4,audios/silence.mp3,visual,[],None,None,,,,,,204,B,2026-03-30_17h06.09.755,exp_sofc_final,,2026.1.2,60.08391314657753,2026-03-30 17h06.11.754107 +0200,
,113,0,113,,,,4,None,3.0209044003859162,None,,,,,,,,,,,113,0,113,0,1699.833221099805,,,,,,,,,,,,,,,,clips/clip_dampf_04_sub_1.mp4,audios/silence.mp3,visual,[],4,None,4,3.0209044003859162,None,,,204,B,2026-03-30_17h06.09.755,exp_sofc_final,,2026.1.2,60.08391314657753,2026-03-30 17h06.11.754107 +0200,
,114,0,114,,,,None,None,,,,,,,,,,,,,114,0,114,0,1713.5306983999908,,,,,,,,,,,,,,,,clips/clip_weißt_16_sub_0.mp4,audios/clip_weißt_16_sub_0.mp3,audiovisual,[],None,None,,,,,,204,B,2026-03-30_17h06.09.755,exp_sofc_final,,2026.1.2,60.08391314657753,2026-03-30 17h06.11.754107 +0200,
,115,0,115,,,,None,None,,,,,,,,,,,,,115,0,115,0,1724.796131500043,,,,,,,,,,,,,,,,clips/clip_hund_35_nosub_0.mp4,audios/silence.mp3,visual,[],None,None,,,,,,204,B,2026-03-30_17h06.09.755,exp_sofc_final,,2026.1.2,60.08391314657753,2026-03-30 17h06.11.754107 +0200,
,116,0,116,,,,3,None,2.758342099841684,None,,,,,,,,,,,116,0,116,0,1736.1690461998805,,,,,,,,,,,,,,,,clips/clip_herz_13_nosub_0.mp4,audios/clip_herz_13_nosub_0.mp3,audiovisual,[7.69169420003891],3,None,3,2.758342099841684,None,,,204,B,2026-03-30_17h06.09.755,exp_sofc_final,,2026.1.2,60.08391314657753,2026-03-30 17h06.11.754107 +0200,
,117,0,117,,,,4,None,3.4587824000045657,None,,,,,,,,,,,117,0,117,0,1751.0667224996723,,,,,,,,,,,,,,,,clips/clip_lied_19_sub_1.mp4,audios/clip_lied_19_sub_1.mp3,audiovisual,[5.324537099804729],4,None,4,3.4587824000045657,None,,,204,B,2026-03-30_17h06.09.755,exp_sofc_final,,2026.1.2,60.08391314657753,2026-03-30 17h06.11.754107 +0200,
,118,0,118,,,,1,None,6.908238799776882,None,,,,,,,,,,,118,0,118,0,1766.1161442999728,,,,,,,,,,,,,,,,clips/clip_lied_02_sub_2.mp4,audios/clip_lied_02_sub_2.mp3,audiovisual,"[4.275046800263226, 9.34511710004881]",1,None,1,6.908238799776882,None,,,204,B,2026-03-30_17h06.09.755,exp_sofc_final,,2026.1.2,60.08391314657753,2026-03-30 17h06.11.754107 +0200,
,119,0,119,,,,None,space,,,0.32874289993196726,None,,,,,,,,,119,0,119,0,1784.9273453997448,,,,,,,,,,,,,,,,clips/clip_claude_27_nosub_0.mp4,audios/clip_claude_27_nosub_0.mp3,audiovisual,[],None,space,,,,0.32874289993196726,None,204,B,2026-03-30_17h06.09.755,exp_sofc_final,,2026.1.2,60.08391314657753,2026-03-30 17h06.11.754107 +0200,
,120,0,120,,,,None,None,,,,,,,,,,,,,120,0,120,0,1798.1017987998202,,,,,,,,,,,,,,,,clips/clip_wurst_05_sub_0.mp4,audios/silence.mp3,visual,[],None,None,,,,,,204,B,2026-03-30_17h06.09.755,exp_sofc_final,,2026.1.2,60.08391314657753,2026-03-30 17h06.11.754107 +0200,
,121,0,121,,,,2,None,2.3862287998199463,None,,,,,,,,,,,121,0,121,0,1807.577221499756,,,,,,,,,,,,,,,,clips/clip_lied_03_nosub_1.mp4,audios/silence.mp3,visual,[5.353192099835724],2,None,2,2.3862287998199463,None,,,204,B,2026-03-30_17h06.09.755,exp_sofc_final,,2026.1.2,60.08391314657753,2026-03-30 17h06.11.754107 +0200,
,122,0,122,,,,None,None,,,,,,,,,,,,,122,0,122,0,1821.4721053997055,,,,,,,,,,,,,,,,clips/clip_weißt_30_sub_2.mp4,audios/silence.mp3,visual,"[3.15914240013808, 12.049037499818951]",None,None,,,,,,204,B,2026-03-30_17h06.09.755,exp_sofc_final,,2026.1.2,60.08391314657753,2026-03-30 17h06.11.754107 +0200,
,123,0,123,,,,None,None,,,,,,,,,,,,,123,0,123,0,1834.188767799642,,,,,,,,,,,,,,,,clips/clip_wurst_12_nosub_0.mp4,audios/silence.mp3,visual,[],None,None,,,,,,204,B,2026-03-30_17h06.09.755,exp_sofc_final,,2026.1.2,60.08391314657753,2026-03-30 17h06.11.754107 +0200,
,124,0,124,,,,4,None,2.988336400128901,None,,,,,,,,,,,124,0,124,0,1843.7075702999718,,,,,,,,,,,,,,,,clips/clip_claude_13_sub_0.mp4,audios/clip_claude_13_sub_0.mp3,audiovisual,[],4,None,4,2.988336400128901,None,,,204,B,2026-03-30_17h06.09.755,exp_sofc_final,,2026.1.2,60.08391314657753,2026-03-30 17h06.11.754107 +0200,
,125,0,125,,,,None,None,,,,,,,,,,,,,125,0,125,0,1856.8629806996323,,,,,,,,,,,,,,,,clips/clip_wurst_28_nosub_1.mp4,audios/silence.mp3,visual,[],None,None,,,,,,204,B,2026-03-30_17h06.09.755,exp_sofc_final,,2026.1.2,60.08391314657753,2026-03-30 17h06.11.754107 +0200,
,126,0,126,,,,None,None,,,,,,,,,,,,,126,0,126,0,1867.959109599702,,,,,,,,,,,,,,,,clips/clip_holo_03_nosub_1.mp4,audios/silence.mp3,visual,[7.352909499779344],None,None,,,,,,204,B,2026-03-30_17h06.09.755,exp_sofc_final,,2026.1.2,60.08391314657753,2026-03-30 17h06.11.754107 +0200,
,127,0,127,,,,None,None,,,,,,,,,,,,,127,0,127,0,1878.3911156998947,,,,,,,,,,,,,,,,clips/clip_lied_15_sub_2.mp4,audios/clip_lied_15_sub_2.mp3,audiovisual,"[3.4526072000153363, 6.989005399867892]",None,None,,,,,,204,B,2026-03-30_17h06.09.755,exp_sofc_final,,2026.1.2,60.08391314657753,2026-03-30 17h06.11.754107 +0200,
,128,0,128,,,,None,None,,,,,,,,,,,,,128,0,128,0,1886.5923347999342,,,,,,,,,,,,,,,,clips/clip_wurst_15_sub_2.mp4,audios/clip_wurst_15_sub_2.mp3,audiovisual,"[5.474925999995321, 7.6536726001650095]",None,None,,,,,,204,B,2026-03-30_17h06.09.755,exp_sofc_final,,2026.1.2,60.08391314657753,2026-03-30 17h06.11.754107 +0200,
,129,0,129,,,,None,None,,,,,,,,,,,,,129,0,129,0,1896.9027167996392,,,,,,,,,,,,,,,,clips/clip_hund_19_nosub_0.mp4,audios/clip_hund_19_nosub_0.mp3,audiovisual,[],None,None,,,,,,204,B,2026-03-30_17h06.09.755,exp_sofc_final,,2026.1.2,60.08391314657753,2026-03-30 17h06.11.754107 +0200,
,130,0,130,,,,None,None,,,,,,,,,,,,,130,0,130,0,1909.0958871999756,,,,,,,,,,,,,,,,clips/clip_wurst_21_nosub_0.mp4,audios/clip_wurst_21_nosub_0.mp3,audiovisual,[],None,None,,,,,,204,B,2026-03-30_17h06.09.755,exp_sofc_final,,2026.1.2,60.08391314657753,2026-03-30 17h06.11.754107 +0200,
,131,0,131,,,,None,None,,,,,,,,,,,,,131,0,131,0,1920.5221629999578,,,,,,,,,,,,,,,,clips/clip_lied_11_nosub_1.mp4,audios/silence.mp3,visual,[7.964441400021315],None,None,,,,,,204,B,2026-03-30_17h06.09.755,exp_sofc_final,,2026.1.2,60.08391314657753,2026-03-30 17h06.11.754107 +0200,
,132,0,132,,,,None,None,,,,,,,,,,,,,132,0,132,0,1932.3819861998782,,,,,,,,,,,,,,,,clips/clip_hund_24_sub_1.mp4,audios/silence.mp3,visual,[8.313828899990767],None,None,,,,,,204,B,2026-03-30_17h06.09.755,exp_sofc_final,,2026.1.2,60.08391314657753,2026-03-30 17h06.11.754107 +0200,
,133,0,133,,,,None,None,,,,,,,,,,,,,133,0,133,0,1945.3442484000698,,,,,,,,,,,,,,,,clips/clip_hund_27_sub_1.mp4,audios/clip_hund_27_sub_1.mp3,audiovisual,[4.649788499809802],None,None,,,,,,204,B,2026-03-30_17h06.09.755,exp_sofc_final,,2026.1.2,60.08391314657753,2026-03-30 17h06.11.754107 +0200,
,134,0,134,,,,4,None,3.5877498001791537,None,,,,,,,,,,,134,0,134,0,1956.3648258000612,,,,,,,,,,,,,,,,clips/clip_weißt_28_nosub_1.mp4,audios/silence.mp3,visual,"[1.8803833001293242, 6.733275400009006]",4,None,4,3.5877498001791537,None,,,204,B,2026-03-30_17h06.09.755,exp_sofc_final,,2026.1.2,60.08391314657753,2026-03-30 17h06.11.754107 +0200,
,135,0,135,,,,None,None,,,,,,,,,,,,,135,0,135,0,1970.984962400049,,,,,,,,,,,,,,,,clips/clip_wurst_33_nosub_0.mp4,audios/clip_wurst_33_nosub_0.mp3,audiovisual,[],None,None,,,,,,204,B,2026-03-30_17h06.09.755,exp_sofc_final,,2026.1.2,60.08391314657753,2026-03-30 17h06.11.754107 +0200,
,136,0,136,,,,None,None,,,,,,,,,,,,,136,0,136,0,1981.5367405996658,,,,,,,,,,,,,,,,clips/clip_weißt_25_nosub_1.mp4,audios/clip_weißt_25_nosub_1.mp3,audiovisual,[4.938595999963582],None,None,,,,,,204,B,2026-03-30_17h06.09.755,exp_sofc_final,,2026.1.2,60.08391314657753,2026-03-30 17h06.11.754107 +0200,
,137,0,137,,,,None,None,,,,,,,,,,,,,137,0,137,0,1994.3781459997408,,,,,,,,,,,,,,,,clips/clip_herz_11_sub_0.mp4,audios/clip_herz_11_sub_0.mp3,audiovisual,"[1.6642001001164317, 5.559721800033003]",None,None,,,,,,204,B,2026-03-30_17h06.09.755,exp_sofc_final,,2026.1.2,60.08391314657753,2026-03-30 17h06.11.754107 +0200,
,138,0,138,,,,None,None,,,,,,,,,,,,,138,0,138,0,2004.546292099636,,,,,,,,,,,,,,,,clips/clip_claude_20_sub_1.mp4,audios/silence.mp3,visual,[6.555220700334758],None,None,,,,,,204,B,2026-03-30_17h06.09.755,exp_sofc_final,,2026.1.2,60.08391314657753,2026-03-30 17h06.11.754107 +0200,
,139,0,139,,,,None,None,,,,,,,,,,,,,139,0,139,0,2017.5113172000274,,,,,,,,,,,,,,,,clips/clip_lied_04_nosub_0.mp4,audios/clip_lied_04_nosub_0.mp3,audiovisual,[],None,None,,,,,,204,B,2026-03-30_17h06.09.755,exp_sofc_final,,2026.1.2,60.08391314657753,2026-03-30 17h06.11.754107 +0200,
,140,0,140,,,,None,None,,,,,,,,,,,,,140,0,140,0,2029.4150674999692,,,,,,,,,,,,,,,,clips/clip_wurst_19_sub_0.mp4,audios/clip_wurst_19_sub_0.mp3,audiovisual,[],None,None,,,,,,204,B,2026-03-30_17h06.09.755,exp_sofc_final,,2026.1.2,60.08391314657753,2026-03-30 17h06.11.754107 +0200,
,141,0,141,,,,None,None,,,,,,,,,,,,,141,0,141,0,2041.3329052999616,,,,,,,,,,,,,,,,clips/clip_weißt_04_sub_0.mp4,audios/silence.mp3,visual,[],None,None,,,,,,204,B,2026-03-30_17h06.09.755,exp_sofc_final,,2026.1.2,60.08391314657753,2026-03-30 17h06.11.754107 +0200,
,142,0,142,,,,3,None,2.560074500273913,None,,,,,,,,,,,142,0,142,0,2052.296964899637,,,,,,,,,,,,,,,,clips/clip_holo_23_nosub_1.mp4,audios/silence.mp3,visual,[],3,None,3,2.560074500273913,None,,,204,B,2026-03-30_17h06.09.755,exp_sofc_final,,2026.1.2,60.08391314657753,2026-03-30 17h06.11.754107 +0200,
,143,0,143,,,,None,None,,,,,,,,,,,,,143,0,143,0,2065.9157189996913,,,,,,,,,,,,,,,,clips/clip_claude_07_nosub_0.mp4,audios/clip_claude_07_nosub_0.mp3,audiovisual,[],None,None,,,,,,204,B,2026-03-30_17h06.09.755,exp_sofc_final,,2026.1.2,60.08391314657753,2026-03-30 17h06.11.754107 +0200,
,144,0,144,,,,None,None,,,,,,,,,,,,,144,0,144,0,2076.8535469998606,,,,,,,,,,,,,,,,clips/clip_wurst_29_nosub_1.mp4,audios/clip_wurst_29_nosub_1.mp3,audiovisual,[],None,None,,,,,,204,B,2026-03-30_17h06.09.755,exp_sofc_final,,2026.1.2,60.08391314657753,2026-03-30 17h06.11.754107 +0200,
,145,0,145,,,,None,None,,,,,,,,,,,,,145,0,145,0,2089.6096048997715,,,,,,,,,,,,,,,,clips/clip_holo_15_nosub_0.mp4,audios/silence.mp3,visual,[6.089461900293827],None,None,,,,,,204,B,2026-03-30_17h06.09.755,exp_sofc_final,,2026.1.2,60.08391314657753,2026-03-30 17h06.11.754107 +0200,
,146,0,146,,,,None,None,,,,,,,,,,,,,146,0,146,0,2099.7499325997196,,,,,,,,,,,,,,,,clips/clip_weißt_12_sub_1.mp4,audios/clip_weißt_12_sub_1.mp3,audiovisual,[8.991781800054014],None,None,,,,,,204,B,2026-03-30_17h06.09.755,exp_sofc_final,,2026.1.2,60.08391314657753,2026-03-30 17h06.11.754107 +0200,
,147,0,147,,,,None,None,,,,,,,,,,,,,147,0,147,0,2112.742035899777,,,,,,,,,,,,,,,,clips/clip_herz_10_sub_0.mp4,audios/silence.mp3,visual,[],None,None,,,,,,204,B,2026-03-30_17h06.09.755,exp_sofc_final,,2026.1.2,60.08391314657753,2026-03-30 17h06.11.754107 +0200,
,148,0,148,,,,None,None,,,,,,,,,,,,,148,0,148,0,2123.9921681997366,,,,,,,,,,,,,,,,clips/clip_wurst_10_sub_2.mp4,audios/silence.mp3,visual,[4.74670850019902],None,None,,,,,,204,B,2026-03-30_17h06.09.755,exp_sofc_final,,2026.1.2,60.08391314657753,2026-03-30 17h06.11.754107 +0200,
,149,0,149,,,,None,None,,,,,,,,,,,,,149,0,149,0,2133.6096679000184,,,,,,,,,,,,,,,,clips/clip_weißt_02_nosub_0.mp4,audios/silence.mp3,visual,[],None,None,,,,,,204,B,2026-03-30_17h06.09.755,exp_sofc_final,,2026.1.2,60.08391314657753,2026-03-30 17h06.11.754107 +0200,
,150,0,150,,,,2,None,3.4700873997062445,None,,,,,,,,,,,150,0,150,0,2144.29930839967,,,,,,,,,,,,,,,,clips/clip_herz_07_sub_2.mp4,audios/clip_herz_07_sub_2.mp3,audiovisual,"[0.4454451999627054, 4.23908710014075, 11.598179299850017]",2,None,2,3.4700873997062445,None,,,204,B,2026-03-30_17h06.09.755,exp_sofc_final,,2026.1.2,60.08391314657753,2026-03-30 17h06.11.754107 +0200,
,151,0,151,,,,None,None,,,,,,,,,,,,,151,0,151,0,2160.7497662999667,,,,,,,,,,,,,,,,clips/clip_hund_11_nosub_1.mp4,audios/clip_hund_11_nosub_1.mp3,audiovisual,[6.064899299759418],None,None,,,,,,204,B,2026-03-30_17h06.09.755,exp_sofc_final,,2026.1.2,60.08391314657753,2026-03-30 17h06.11.754107 +0200,
,152,0,152,,,,None,None,,,,,,,,,,,,,152,0,152,0,2171.212760699913,,,,,,,,,,,,,,,,clips/clip_herz_08_nosub_0.mp4,audios/silence.mp3,visual,"[5.339635899756104, 9.485440900083631]",None,None,,,,,,204,B,2026-03-30_17h06.09.755,exp_sofc_final,,2026.1.2,60.08391314657753,2026-03-30 17h06.11.754107 +0200,
,153,0,153,,,,None,None,,,,,,,,,,,,,153,0,153,0,2184.039910099935,,,,,,,,,,,,,,,,clips/clip_holo_01_sub_1.mp4,audios/silence.mp3,visual,[4.237570599652827],None,None,,,,,,204,B,2026-03-30_17h06.09.755,exp_sofc_final,,2026.1.2,60.08391314657753,2026-03-30 17h06.11.754107 +0200,
,154,0,154,,,,None,None,,,,,,,,,,,,,154,0,154,0,2194.1933046998456,,,,,,,,,,,,,,,,clips/clip_lied_14_sub_0.mp4,audios/silence.mp3,visual,[],None,None,,,,,,204,B,2026-03-30_17h06.09.755,exp_sofc_final,,2026.1.2,60.08391314657753,2026-03-30 17h06.11.754107 +0200,
,155,0,155,,,,None,None,,,,,,,,,,,,,155,0,155,0,2204.7377601996996,,,,,,,,,,,,,,,,clips/clip_weißt_14_nosub_2.mp4,audios/clip_weißt_14_nosub_2.mp3,audiovisual,"[3.0205364003777504, 7.994025400374085]",None,None,,,,,,204,B,2026-03-30_17h06.09.755,exp_sofc_final,,2026.1.2,60.08391314657753,2026-03-30 17h06.11.754107 +0200,
,156,0,156,,,,None,None,,,,,,,,,,,,,156,0,156,0,2214.4805847997777,,,,,,,,,,,,,,,,clips/clip_wurst_26_sub_1.mp4,audios/silence.mp3,visual,[],None,None,,,,,,204,B,2026-03-30_17h06.09.755,exp_sofc_final,,2026.1.2,60.08391314657753,2026-03-30 17h06.11.754107 +0200,
,157,0,157,,,,None,None,,,,,,,,,,,,,157,0,157,0,2228.1206561997533,,,,,,,,,,,,,,,,clips/clip_hund_07_nosub_1.mp4,audios/clip_hund_07_nosub_1.mp3,audiovisual,"[4.556034300010651, 6.808857600204647, 12.334073500242084]",None,None,,,,,,204,B,2026-03-30_17h06.09.755,exp_sofc_final,,2026.1.2,60.08391314657753,2026-03-30 17h06.11.754107 +0200,
,158,0,158,,,,None,None,,,,,,,,,,,,,158,0,158,0,2240.0625820998102,,,,,,,,,,,,,,,,clips/clip_claude_15_nosub_0.mp4,audios/clip_claude_15_nosub_0.mp3,audiovisual,[],None,None,,,,,,204,B,2026-03-30_17h06.09.755,exp_sofc_final,,2026.1.2,60.08391314657753,2026-03-30 17h06.11.754107 +0200,
,159,0,159,,,,None,None,,,,,,,,,,,,,159,0,159,0,2252.8654954000376,,,,,,,,,,,,,,,,clips/clip_claude_26_nosub_0.mp4,audios/silence.mp3,visual,[4.965708599891514],None,None,,,,,,204,B,2026-03-30_17h06.09.755,exp_sofc_final,,2026.1.2,60.08391314657753,2026-03-30 17h06.11.754107 +0200,
,160,0,160,,,,None,None,,,,,,,,,,,,,160,0,160,0,2264.704248199705,,,,,,,,,,,,,,,,clips/clip_herz_01_nosub_1.mp4,audios/clip_herz_01_nosub_1.mp3,audiovisual,[6.066918199881911],None,None,,,,,,204,B,2026-03-30_17h06.09.755,exp_sofc_final,,2026.1.2,60.08391314657753,2026-03-30 17h06.11.754107 +0200,
,161,0,161,,,,None,None,,,,,,,,,,,,,161,0,161,0,2276.1450110999867,,,,,,,,,,,,,,,,clips/clip_lied_05_sub_0.mp4,audios/silence.mp3,visual,[],None,None,,,,,,204,B,2026-03-30_17h06.09.755,exp_sofc_final,,2026.1.2,60.08391314657753,2026-03-30 17h06.11.754107 +0200,
,162,0,162,,,,None,None,,,,,,,,,,,,,162,0,162,0,2286.356001299806,,,,,,,,,,,,,,,,clips/clip_claude_23_nosub_0.mp4,audios/clip_claude_23_nosub_0.mp3,audiovisual,[],None,None,,,,,,204,B,2026-03-30_17h06.09.755,exp_sofc_final,,2026.1.2,60.08391314657753,2026-03-30 17h06.11.754107 +0200,
,163,0,163,,,,1,None,2.5392157998867333,None,,,,,,,,,,,163,0,163,0,2299.55384389963,,,,,,,,,,,,,,,,clips/clip_weißt_20_sub_1.mp4,audios/silence.mp3,visual,[7.762827300000936],1,None,1,2.5392157998867333,None,,,204,B,2026-03-30_17h06.09.755,exp_sofc_final,,2026.1.2,60.08391314657753,2026-03-30 17h06.11.754107 +0200,
,164,0,164,,,,None,None,,,,,,,,,,,,,164,0,164,0,2312.836912999861,,,,,,,,,,,,,,,,clips/clip_weißt_22_sub_0.mp4,audios/clip_weißt_22_sub_0.mp3,audiovisual,[],None,None,,,,,,204,B,2026-03-30_17h06.09.755,exp_sofc_final,,2026.1.2,60.08391314657753,2026-03-30 17h06.11.754107 +0200,
,165,0,165,,,,None,None,,,,,,,,,,,,,165,0,165,0,2324.6292958999984,,,,,,,,,,,,,,,,clips/clip_lied_10_sub_1.mp4,audios/clip_lied_10_sub_1.mp3,audiovisual,[4.434484899975359],None,None,,,,,,204,B,2026-03-30_17h06.09.755,exp_sofc_final,,2026.1.2,60.08391314657753,2026-03-30 17h06.11.754107 +0200,
,166,0,166,,,,None,None,,,,,,,,,,,,,166,0,166,0,2337.0132494997233,,,,,,,,,,,,,,,,clips/clip_claude_16_sub_1.mp4,audios/silence.mp3,visual,[8.938408399932086],None,None,,,,,,204,B,2026-03-30_17h06.09.755,exp_sofc_final,,2026.1.2,60.08391314657753,2026-03-30 17h06.11.754107 +0200,
,167,0,167,,,,1,None,4.843232700135559,None,,,,,,,,,,,167,0,167,0,2349.0864629000425,,,,,,,,,,,,,,,,clips/clip_claude_19_nosub_0.mp4,audios/clip_claude_19_nosub_0.mp3,audiovisual,[],1,None,1,4.843232700135559,None,,,204,B,2026-03-30_17h06.09.755,exp_sofc_final,,2026.1.2,60.08391314657753,2026-03-30 17h06.11.754107 +0200,
,168,0,168,,,,None,None,,,,,,,,,,,,,168,0,168,0,2365.3292747996747,,,,,,,,,,,,,,,,clips/clip_holo_21_sub_1.mp4,audios/silence.mp3,visual,[4.1690899999812245],None,None,,,,,,204,B,2026-03-30_17h06.09.755,exp_sofc_final,,2026.1.2,60.08391314657753,2026-03-30 17h06.11.754107 +0200,
,169,0,169,,,,None,None,,,,,,,,,,,,,169,0,169,0,2376.261971199885,,,,,,,,,,,,,,,,clips/clip_lied_22_sub_1.mp4,audios/silence.mp3,visual,[5.958138700108975],None,None,,,,,,204,B,2026-03-30_17h06.09.755,exp_sofc_final,,2026.1.2,60.08391314657753,2026-03-30 17h06.11.754107 +0200,
,170,0,170,,,,None,None,,,,,,,,,,,,,170,0,170,0,2387.647109099664,,,,,,,,,,,,,,,,clips/clip_weißt_19_nosub_1.mp4,audios/clip_weißt_19_nosub_1.mp3,audiovisual,[0.5608569998294115],None,None,,,,,,204,B,2026-03-30_17h06.09.755,exp_sofc_final,,2026.1.2,60.08391314657753,2026-03-30 17h06.11.754107 +0200,
,171,0,171,,,,None,None,,,,,,,,,,,,,171,0,171,0,2398.484819599893,,,,,,,,,,,,,,,,clips/clip_wurst_08_nosub_1.mp4,audios/clip_wurst_08_nosub_1.mp3,audiovisual,[5.339317800011486],None,None,,,,,,204,B,2026-03-30_17h06.09.755,exp_sofc_final,,2026.1.2,60.08391314657753,2026-03-30 17h06.11.754107 +0200,
,172,0,172,,,,4,None,4.472898799926043,None,,,,,,,,,,,172,0,172,0,2407.818028999958,,,,,,,,,,,,,,,,clips/clip_lied_07_nosub_1.mp4,audios/silence.mp3,visual,[4.493064899928868],4,None,4,4.472898799926043,None,,,204,B,2026-03-30_17h06.09.755,exp_sofc_final,,2026.1.2,60.08391314657753,2026-03-30 17h06.11.754107 +0200,
,173,0,173,,,,None,None,,,,,,,,,,,,,173,0,173,0,2422.1961506996304,,,,,,,,,,,,,,,,clips/clip_wurst_16_nosub_0.mp4,audios/silence.mp3,visual,[],None,None,,,,,,204,B,2026-03-30_17h06.09.755,exp_sofc_final,,2026.1.2,60.08391314657753,2026-03-30 17h06.11.754107 +0200,
,174,0,174,,,,3,None,3.7857390996068716,None,,,,,,,,,,,174,0,174,0,2433.0626809997484,,,,,,,,,,,,,,,,clips/clip_wurst_20_nosub_0.mp4,audios/silence.mp3,visual,[],3,None,3,3.7857390996068716,None,,,204,B,2026-03-30_17h06.09.755,exp_sofc_final,,2026.1.2,60.08391314657753,2026-03-30 17h06.11.754107 +0200,
,175,0,175,,,,None,None,,,,,,,,,,,,,175,0,175,0,2447.863696699962,,,,,,,,,,,,,,,,clips/clip_claude_12_sub_0.mp4,audios/silence.mp3,visual,[],None,None,,,,,,204,B,2026-03-30_17h06.09.755,exp_sofc_final,,2026.1.2,60.08391314657753,2026-03-30 17h06.11.754107 +0200,
,176,0,176,,,,None,None,,,,,,,,,,,,,176,0,176,0,2457.961251599714,,,,,,,,,,,,,,,,clips/clip_claude_05_sub_2.mp4,audios/clip_claude_05_sub_2.mp3,audiovisual,[4.588227299973369],None,None,,,,,,204,B,2026-03-30_17h06.09.755,exp_sofc_final,,2026.1.2,60.08391314657753,2026-03-30 17h06.11.754107 +0200,
,177,0,177,,,,None,None,,,,,,,,,,,,,177,0,177,0,2470.115291699767,,,,,,,,,,,,,,,,clips/clip_hund_12_sub_1.mp4,audios/silence.mp3,visual,[9.902856799773872],None,None,,,,,,204,B,2026-03-30_17h06.09.755,exp_sofc_final,,2026.1.2,60.08391314657753,2026-03-30 17h06.11.754107 +0200,
,178,0,178,,,,4,None,2.3938265000469983,None,,,,,,,,,,,178,0,178,0,2482.926839400083,,,,,,,,,,,,,,,,clips/clip_herz_17_nosub_0.mp4,audios/clip_herz_17_nosub_0.mp3,audiovisual,[5.464726299978793],4,None,4,2.3938265000469983,None,,,204,B,2026-03-30_17h06.09.755,exp_sofc_final,,2026.1.2,60.08391314657753,2026-03-30 17h06.11.754107 +0200,
,179,0,179,,,,None,None,,,,,,,,,,,,,179,0,179,0,2494.546521799639,,,,,,,,,,,,,,,,clips/clip_hund_09_sub_2.mp4,audios/clip_hund_09_sub_2.mp3,audiovisual,[10.527627000119537],None,None,,,,,,204,B,2026-03-30_17h06.09.755,exp_sofc_final,,2026.1.2,60.08391314657753,2026-03-30 17h06.11.754107 +0200,
,,,,,,,,,,,,,,,,,,,,,,,,,,,,,,,,,,,,,,,,,,,,,,,,,,,,204,B,2026-03-30_17h06.09.755,exp_sofc_final,,2026.1.2,60.08391314657753,2026-03-30 17h06.11.754107 +0200,
