instruction_text;thisN;thisTrialN;thisRepN;prac_attention_resp.keys;prac_attention_resp.rt;prac_attention_resp.duration;exp_atttention_resp.keys;exp_pause_resp.keys;exp_atttention_resp.rt;exp_atttention_resp.duration;exp_pause_resp.rt;exp_pause_resp.duration;instruction_trial.thisRepN;instruction_trial.thisTrialN;instruction_trial.thisN;instruction_trial.thisIndex;practice_trials.thisRepN;practice_trials.thisTrialN;practice_trials.thisN;practice_trials.thisIndex;experiment_trials.thisRepN;experiment_trials.thisTrialN;experiment_trials.thisN;experiment_trials.thisIndex;thisRow.t;notes;piloting;assigned_ls_group;slider_informed_consent.response;Practice_clip_name;Practice_video_used;Practice_audio_used;Practice_modality;Practice_subtitles;Practice_attention_check;Practice_all_cut_rts;Practice_correct_key_required;practice_trials.prac_attention_resp.keys;practice_trials.prac_attention_resp.rt;practice_trials.prac_attention_resp.duration;video_used;audio_used;condition_modality;all_cut_rts;experiment_trials.exp_atttention_resp.keys;experiment_trials.exp_pause_resp.keys;correct_key_required;experiment_trials.exp_atttention_resp.rt;experiment_trials.exp_atttention_resp.duration;experiment_trials.exp_pause_resp.rt;experiment_trials.exp_pause_resp.duration;participant;session;date;expName;expVersion;psychopyVersion;frameRate;expStart
Einverständniserklärung;;;;;;;;;;;;;;;;;;;;;;;;;;;;;;;;;;;;;;;;;;;;;;;;;;;;;;;;;;;
;;;;;;;;;;;;;;;;;;;;;;;;;;;;;;;;;;;;;;;;;;;;;;;;;;;;205;B;2026-04-01_18h26.56.490;exp_sofc_final;;02.01.2026;5.999.545.237.992.540;2026-04-01 18h26.58.027871 +0200
;0;0;0;4;987.814.119.970.426;None;;;;;;;;;;;0;0;0;0;;;;;6.534.126.739.995.550;;;;;clip_weißt_05_sub_0;clips/clip_weißt_05_sub_0.mp4;audios/clip_weißt_05_sub_0.mp3;audiovisual;sub;True;[];4;4;987.814.119.970.426;None;;;;;;;;;;;;205;B;2026-04-01_18h26.56.490;exp_sofc_final;;02.01.2026;5.999.545.237.992.540;2026-04-01 18h26.58.027871 +0200
;1;0;1;None;;;;;;;;;;;;;1;0;1;0;;;;;8.538.587.780.017.400;;;;;clip_weißt_10_nosub_1;clips/clip_weißt_10_nosub_1.mp4;audios/clip_weißt_10_nosub_1.mp3;audiovisual;nosub;False;[];;None;;;;;;;;;;;;;;205;B;2026-04-01_18h26.56.490;exp_sofc_final;;02.01.2026;5.999.545.237.992.540;2026-04-01 18h26.58.027871 +0200
;2;0;2;None;;;;;;;;;;;;;2;0;2;0;;;;;9.722.216.060.012.570;;;;;clip_weißt_21_nosub_0;clips/clip_weißt_21_nosub_0.mp4;audios/silence.mp3;visual;nosub;False;[1.5944369998760521];;None;;;;;;;;;;;;;;205;B;2026-04-01_18h26.56.490;exp_sofc_final;;02.01.2026;5.999.545.237.992.540;2026-04-01 18h26.58.027871 +0200
;3;0;3;None;;;;;;;;;;;;;3;0;3;0;;;;;10.817.186.499.992.300;;;;;clip_hund_28_nosub_0;clips/clip_hund_28_nosub_0.mp4;audios/clip_hund_28_nosub_0.mp3;audiovisual;nosub;False;[];;None;;;;;;;;;;;;;;205;B;2026-04-01_18h26.56.490;exp_sofc_final;;02.01.2026;5.999.545.237.992.540;2026-04-01 18h26.58.027871 +0200
;4;0;4;None;;;;;;;;;;;;;4;0;4;0;;;;;11.883.907.559.979.700;;;;;clip_weißt_09_sub_1;clips/clip_weißt_09_sub_1.mp4;audios/silence.mp3;visual;sub;False;[];;None;;;;;;;;;;;;;;205;B;2026-04-01_18h26.56.490;exp_sofc_final;;02.01.2026;5.999.545.237.992.540;2026-04-01 18h26.58.027871 +0200
;5;0;5;1;505.574.919.981.882;None;;;;;;;;;;;5;0;5;0;;;;;12.867.691.780.021.400;;;;;clip_hund_25_sub_1;clips/clip_hund_25_sub_1.mp4;audios/silence.mp3;visual;sub;True;[];1;1;505.574.919.981.882;None;;;;;;;;;;;;205;B;2026-04-01_18h26.56.490;exp_sofc_final;;02.01.2026;5.999.545.237.992.540;2026-04-01 18h26.58.027871 +0200
;6;0;6;2;3.645.414.900.034.660;None;;;;;;;;;;;6;0;6;0;;;;;14.297.965.710.004.700;;;;;clip_hund_02_sub_1;clips/clip_hund_02_sub_1.mp4;audios/clip_hund_02_sub_1.mp3;audiovisual;sub;True;[];2;2;3.645.414.900.034.660;None;;;;;;;;;;;;205;B;2026-04-01_18h26.56.490;exp_sofc_final;;02.01.2026;5.999.545.237.992.540;2026-04-01 18h26.58.027871 +0200
;7;0;7;None;;;;;;;;;;;;;7;0;7;0;;;;;15.738.640.940.003.000;;;;;clip_hund_26_sub_1;clips/clip_hund_26_sub_1.mp4;audios/silence.mp3;visual;sub;False;[];;None;;;;;;;;;;;;;;205;B;2026-04-01_18h26.56.490;exp_sofc_final;;02.01.2026;5.999.545.237.992.540;2026-04-01 18h26.58.027871 +0200
;8;0;8;None;;;;;;;;;;;;;8;0;8;0;;;;;16.756.298.460.019.700;;;;;clip_weißt_18_nosub_1;clips/clip_weißt_18_nosub_1.mp4;audios/silence.mp3;visual;nosub;False;[];;None;;;;;;;;;;;;;;205;B;2026-04-01_18h26.56.490;exp_sofc_final;;02.01.2026;5.999.545.237.992.540;2026-04-01 18h26.58.027871 +0200
;9;0;9;None;;;;;;;;;;;;;9;0;9;0;;;;;18.050.287.560.001.000;;;;;clip_wurst_09_sub_1;clips/clip_wurst_09_sub_1.mp4;audios/clip_wurst_09_sub_1.mp3;audiovisual;sub;False;[];;None;;;;;;;;;;;;;;205;B;2026-04-01_18h26.56.490;exp_sofc_final;;02.01.2026;5.999.545.237.992.540;2026-04-01 18h26.58.027871 +0200
;10;0;10;2;7.421.610.499.732.190;None;;;;;;;;;;;10;0;10;0;;;;;192.595.120.199.956;;;;;clip_hund_06_nosub_0;clips/clip_hund_06_nosub_0.mp4;audios/clip_hund_06_nosub_0.mp3;audiovisual;nosub;True;[];2;2;7.421.610.499.732.190;None;;;;;;;;;;;;205;B;2026-04-01_18h26.56.490;exp_sofc_final;;02.01.2026;5.999.545.237.992.540;2026-04-01 18h26.58.027871 +0200
;11;0;11;None;;;;;;;;;;;;;11;0;11;0;;;;;21.175.785.139.994.600;;;;;clip_hund_31_sub_0;clips/clip_hund_31_sub_0.mp4;audios/silence.mp3;visual;sub;False;[];;None;;;;;;;;;;;;;;205;B;2026-04-01_18h26.56.490;exp_sofc_final;;02.01.2026;5.999.545.237.992.540;2026-04-01 18h26.58.027871 +0200
;;;;;;;;;;;;;;;;;;;;;;;;;;;;;;;;;;;;;;;;;;;;;;;;;;;;205;B;2026-04-01_18h26.56.490;exp_sofc_final;;02.01.2026;5.999.545.237.992.540;2026-04-01 18h26.58.027871 +0200
;0;0;0;;;;None;None;;;;;;;;;;;;;0;0;0;0;2.278.214.432.001.110;;;;;;;;;;;;;;;;clips/clip_hund_18_sub_1.mp4;audios/silence.mp3;visual;[];None;None;;;;;;205;B;2026-04-01_18h26.56.490;exp_sofc_final;;02.01.2026;5.999.545.237.992.540;2026-04-01 18h26.58.027871 +0200
;1;0;1;;;;None;None;;;;;;;;;;;;;1;0;1;0;2.386.883.741.999.040;;;;;;;;;;;;;;;;clips/clip_herz_04_sub_0.mp4;audios/silence.mp3;visual;[];None;None;;;;;;205;B;2026-04-01_18h26.56.490;exp_sofc_final;;02.01.2026;5.999.545.237.992.540;2026-04-01 18h26.58.027871 +0200
;2;0;2;;;;4;None;443.639.130.005.613;None;;;;;;;;;;;2;0;2;0;25.059.243.150.008.800;;;;;;;;;;;;;;;;clips/clip_weißt_01_nosub_1.mp4;audios/clip_weißt_01_nosub_1.mp3;audiovisual;[];4;None;4;443.639.130.005.613;None;;;205;B;2026-04-01_18h26.56.490;exp_sofc_final;;02.01.2026;5.999.545.237.992.540;2026-04-01 18h26.58.027871 +0200
;3;0;3;;;;1;None;645.135.880.028.829;None;;;;;;;;;;;3;0;3;0;2.669.125.211.997.880;;;;;;;;;;;;;;;;clips/clip_wurst_16_sub_0.mp4;audios/silence.mp3;visual;[];1;None;1;645.135.880.028.829;None;;;205;B;2026-04-01_18h26.56.490;exp_sofc_final;;02.01.2026;5.999.545.237.992.540;2026-04-01 18h26.58.027871 +0200
;4;0;4;;;;None;None;;;;;;;;;;;;;4;0;4;0;2.842.532.453.001.470;;;;;;;;;;;;;;;;clips/clip_claude_06_sub_1.mp4;audios/silence.mp3;visual;[];None;None;;;;;;205;B;2026-04-01_18h26.56.490;exp_sofc_final;;02.01.2026;5.999.545.237.992.540;2026-04-01 18h26.58.027871 +0200
;5;0;5;;;;None;None;;;;;;;;;;;;;5;0;5;0;2.976.829.372.998.320;;;;;;;;;;;;;;;;clips/clip_claude_20_nosub_1.mp4;audios/silence.mp3;visual;[];None;None;;;;;;205;B;2026-04-01_18h26.56.490;exp_sofc_final;;02.01.2026;5.999.545.237.992.540;2026-04-01 18h26.58.027871 +0200
;6;0;6;;;;None;None;;;;;;;;;;;;;6;0;6;0;3.105.208.089.998.920;;;;;;;;;;;;;;;;clips/clip_wurst_12_sub_0.mp4;audios/silence.mp3;visual;[];None;None;;;;;;205;B;2026-04-01_18h26.56.490;exp_sofc_final;;02.01.2026;5.999.545.237.992.540;2026-04-01 18h26.58.027871 +0200
;7;0;7;;;;None;None;;;;;;;;;;;;;7;0;7;0;3.200.306.977.001.010;;;;;;;;;;;;;;;;clips/clip_lied_21_sub_2.mp4;audios/clip_lied_21_sub_2.mp3;audiovisual;[];None;None;;;;;;205;B;2026-04-01_18h26.56.490;exp_sofc_final;;02.01.2026;5.999.545.237.992.540;2026-04-01 18h26.58.027871 +0200
;8;0;8;;;;None;None;;;;;;;;;;;;;8;0;8;0;3.323.583.901.999.510;;;;;;;;;;;;;;;;clips/clip_holo_16_sub_1.mp4;audios/clip_holo_16_sub_1.mp3;audiovisual;[];None;None;;;;;;205;B;2026-04-01_18h26.56.490;exp_sofc_final;;02.01.2026;5.999.545.237.992.540;2026-04-01 18h26.58.027871 +0200
;9;0;9;;;;None;None;;;;;;;;;;;;;9;0;9;0;3.451.926.440.000.530;;;;;;;;;;;;;;;;clips/clip_wurst_20_sub_0.mp4;audios/silence.mp3;visual;[];None;None;;;;;;205;B;2026-04-01_18h26.56.490;exp_sofc_final;;02.01.2026;5.999.545.237.992.540;2026-04-01 18h26.58.027871 +0200
;10;0;10;;;;2;None;10.975.059.600.081.200;None;;;;;;;;;;;10;0;10;0;35.604.327.729.996.200;;;;;;;;;;;;;;;;clips/clip_herz_06_nosub_2.mp4;audios/silence.mp3;visual;[];2;None;1;10.975.059.600.081.200;None;;;205;B;2026-04-01_18h26.56.490;exp_sofc_final;;02.01.2026;5.999.545.237.992.540;2026-04-01 18h26.58.027871 +0200
;11;0;11;;;;None;None;;;;;;;;;;;;;11;0;11;0;3.784.998.878.999.610;;;;;;;;;;;;;;;;clips/clip_lied_01_nosub_1.mp4;audios/silence.mp3;visual;[];None;None;;;;;;205;B;2026-04-01_18h26.56.490;exp_sofc_final;;02.01.2026;5.999.545.237.992.540;2026-04-01 18h26.58.027871 +0200
;12;0;12;;;;2;None;7.755.205.700.173.970;None;;;;;;;;;;;12;0;12;0;3.893.433.209.997.600;;;;;;;;;;;;;;;;clips/clip_herz_03_nosub_2.mp4;audios/clip_herz_03_nosub_2.mp3;audiovisual;[];2;None;2;7.755.205.700.173.970;None;;;205;B;2026-04-01_18h26.56.490;exp_sofc_final;;02.01.2026;5.999.545.237.992.540;2026-04-01 18h26.58.027871 +0200
;13;0;13;;;;None;None;;;;;;;;;;;;;13;0;13;0;4.103.457.117.001.520;;;;;;;;;;;;;;;;clips/clip_wurst_32_sub_1.mp4;audios/silence.mp3;visual;[];None;None;;;;;;205;B;2026-04-01_18h26.56.490;exp_sofc_final;;02.01.2026;5.999.545.237.992.540;2026-04-01 18h26.58.027871 +0200
;14;0;14;;;;4;None;35.723.031.000.234.100;None;;;;;;;;;;;14;0;14;0;42.177.563.530.020.400;;;;;;;;;;;;;;;;clips/clip_wurst_33_sub_0.mp4;audios/clip_wurst_33_sub_0.mp3;audiovisual;[];4;None;4;35.723.031.000.234.100;None;;;205;B;2026-04-01_18h26.56.490;exp_sofc_final;;02.01.2026;5.999.545.237.992.540;2026-04-01 18h26.58.027871 +0200
;15;0;15;;;;None;None;;;;;;;;;;;;;15;0;15;0;43.595.517.039.997.500;;;;;;;;;;;;;;;;clips/clip_weißt_16_nosub_0.mp4;audios/clip_weißt_16_nosub_0.mp3;audiovisual;[];None;None;;;;;;205;B;2026-04-01_18h26.56.490;exp_sofc_final;;02.01.2026;5.999.545.237.992.540;2026-04-01 18h26.58.027871 +0200
;16;0;16;;;;None;None;;;;;;;;;;;;;16;0;16;0;44.784.658.579.993.900;;;;;;;;;;;;;;;;clips/clip_holo_21_nosub_1.mp4;audios/silence.mp3;visual;[];None;None;;;;;;205;B;2026-04-01_18h26.56.490;exp_sofc_final;;02.01.2026;5.999.545.237.992.540;2026-04-01 18h26.58.027871 +0200
;17;0;17;;;;None;None;;;;;;;;;;;;;17;0;17;0;4.585.455.501.000.390;;;;;;;;;;;;;;;;clips/clip_holo_19_sub_1.mp4;audios/silence.mp3;visual;[];None;None;;;;;;205;B;2026-04-01_18h26.56.490;exp_sofc_final;;02.01.2026;5.999.545.237.992.540;2026-04-01 18h26.58.027871 +0200
;18;0;18;;;;None;None;;;;;;;;;;;;;18;0;18;0;4.693.780.048.000.620;;;;;;;;;;;;;;;;clips/clip_wurst_22_nosub_0.mp4;audios/silence.mp3;visual;[];None;None;;;;;;205;B;2026-04-01_18h26.56.490;exp_sofc_final;;02.01.2026;5.999.545.237.992.540;2026-04-01 18h26.58.027871 +0200
;19;0;19;;;;None;None;;;;;;;;;;;;;19;0;19;0;48.190.897.820.005.100;;;;;;;;;;;;;;;;clips/clip_weißt_23_sub_1.mp4;audios/silence.mp3;visual;[];None;None;;;;;;205;B;2026-04-01_18h26.56.490;exp_sofc_final;;02.01.2026;5.999.545.237.992.540;2026-04-01 18h26.58.027871 +0200
;20;0;20;;;;1;None;7.648.062.499.705.700;None;;;;;;;;;;;20;0;20;0;4.942.162.521.001.880;;;;;;;;;;;;;;;;clips/clip_hund_17_nosub_1.mp4;audios/clip_hund_17_nosub_1.mp3;audiovisual;[];1;None;2;7.648.062.499.705.700;None;;;205;B;2026-04-01_18h26.56.490;exp_sofc_final;;02.01.2026;5.999.545.237.992.540;2026-04-01 18h26.58.027871 +0200
;21;0;21;;;;None;None;;;;;;;;;;;;;21;0;21;0;5.149.845.854.002.050;;;;;;;;;;;;;;;;clips/clip_dampf_04_nosub_1.mp4;audios/silence.mp3;visual;[];None;None;;;;;;205;B;2026-04-01_18h26.56.490;exp_sofc_final;;02.01.2026;5.999.545.237.992.540;2026-04-01 18h26.58.027871 +0200
;22;0;22;;;;None;None;;;;;;;;;;;;;22;0;22;0;5.254.126.340.001.820;;;;;;;;;;;;;;;;clips/clip_holo_05_nosub_2.mp4;audios/silence.mp3;visual;[];None;None;;;;;;205;B;2026-04-01_18h26.56.490;exp_sofc_final;;02.01.2026;5.999.545.237.992.540;2026-04-01 18h26.58.027871 +0200
;23;0;23;;;;1;None;2.091.220.370.028.160;None;;;;;;;;;;;23;0;23;0;5.353.591.236.998.320;;;;;;;;;;;;;;;;clips/clip_claude_16_nosub_1.mp4;audios/silence.mp3;visual;[];1;None;4;2.091.220.370.028.160;None;;;205;B;2026-04-01_18h26.56.490;exp_sofc_final;;02.01.2026;5.999.545.237.992.540;2026-04-01 18h26.58.027871 +0200
;24;0;24;;;;None;None;;;;;;;;;;;;;24;0;24;0;5.683.600.142.998.620;;;;;;;;;;;;;;;;clips/clip_claude_07_sub_0.mp4;audios/clip_claude_07_sub_0.mp3;audiovisual;[];None;None;;;;;;205;B;2026-04-01_18h26.56.490;exp_sofc_final;;02.01.2026;5.999.545.237.992.540;2026-04-01 18h26.58.027871 +0200
;25;0;25;;;;None;None;;;;;;;;;;;;;25;0;25;0;5.791.386.378.998.860;;;;;;;;;;;;;;;;clips/clip_wurst_03_sub_1.mp4;audios/silence.mp3;visual;[];None;None;;;;;;205;B;2026-04-01_18h26.56.490;exp_sofc_final;;02.01.2026;5.999.545.237.992.540;2026-04-01 18h26.58.027871 +0200
;26;0;26;;;;None;None;;;;;;;;;;;;;26;0;26;0;591.870.352.299.884;;;;;;;;;;;;;;;;clips/clip_herz_02_nosub_0.mp4;audios/silence.mp3;visual;[];None;None;;;;;;205;B;2026-04-01_18h26.56.490;exp_sofc_final;;02.01.2026;5.999.545.237.992.540;2026-04-01 18h26.58.027871 +0200
;27;0;27;;;;None;None;;;;;;;;;;;;;27;0;27;0;6.051.537.278.997.710;;;;;;;;;;;;;;;;clips/clip_weißt_14_sub_2.mp4;audios/clip_weißt_14_sub_2.mp3;audiovisual;[];None;None;;;;;;205;B;2026-04-01_18h26.56.490;exp_sofc_final;;02.01.2026;5.999.545.237.992.540;2026-04-01 18h26.58.027871 +0200
;28;0;28;;;;None;None;;;;;;;;;;;;;28;0;28;0;6.148.790.930.998.510;;;;;;;;;;;;;;;;clips/clip_hund_10_sub_0.mp4;audios/silence.mp3;visual;[];None;None;;;;;;205;B;2026-04-01_18h26.56.490;exp_sofc_final;;02.01.2026;5.999.545.237.992.540;2026-04-01 18h26.58.027871 +0200
;29;0;29;;;;None;None;;;;;;;;;;;;;29;0;29;0;6.252.174.407.001.580;;;;;;;;;;;;;;;;clips/clip_holo_03_sub_1.mp4;audios/silence.mp3;visual;[];None;None;;;;;;205;B;2026-04-01_18h26.56.490;exp_sofc_final;;02.01.2026;5.999.545.237.992.540;2026-04-01 18h26.58.027871 +0200
;30;0;30;;;;None;None;;;;;;;;;;;;;30;0;30;0;6.355.874.172.002.070;;;;;;;;;;;;;;;;clips/clip_hund_11_sub_1.mp4;audios/clip_hund_11_sub_1.mp3;audiovisual;[];None;None;;;;;;205;B;2026-04-01_18h26.56.490;exp_sofc_final;;02.01.2026;5.999.545.237.992.540;2026-04-01 18h26.58.027871 +0200
;31;0;31;;;;None;None;;;;;;;;;;;;;31;0;31;0;6.461.690.444.997.510;;;;;;;;;;;;;;;;clips/clip_lied_06_nosub_1.mp4;audios/clip_lied_06_nosub_1.mp3;audiovisual;[];None;None;;;;;;205;B;2026-04-01_18h26.56.490;exp_sofc_final;;02.01.2026;5.999.545.237.992.540;2026-04-01 18h26.58.027871 +0200
;32;0;32;;;;None;None;;;;;;;;;;;;;32;0;32;0;6.596.298.571.000.800;;;;;;;;;;;;;;;;clips/clip_hund_07_sub_1.mp4;audios/clip_hund_07_sub_1.mp3;audiovisual;[];None;None;;;;;;205;B;2026-04-01_18h26.56.490;exp_sofc_final;;02.01.2026;5.999.545.237.992.540;2026-04-01 18h26.58.027871 +0200
;33;0;33;;;;None;None;;;;;;;;;;;;;33;0;33;0;6.720.419.998.997.820;;;;;;;;;;;;;;;;clips/clip_claude_18_sub_0.mp4;audios/silence.mp3;visual;[];None;None;;;;;;205;B;2026-04-01_18h26.56.490;exp_sofc_final;;02.01.2026;5.999.545.237.992.540;2026-04-01 18h26.58.027871 +0200
;34;0;34;;;;1;None;8.128.359.799.738.970;None;;;;;;;;;;;34;0;34;0;6.819.213.792.998.340;;;;;;;;;;;;;;;;clips/clip_holo_24_sub_2.mp4;audios/clip_holo_24_sub_2.mp3;audiovisual;[];1;None;1;8.128.359.799.738.970;None;;;205;B;2026-04-01_18h26.56.490;exp_sofc_final;;02.01.2026;5.999.545.237.992.540;2026-04-01 18h26.58.027871 +0200
;35;0;35;;;;None;None;;;;;;;;;;;;;35;0;35;0;700.731.963.600.032;;;;;;;;;;;;;;;;clips/clip_wurst_28_sub_1.mp4;audios/silence.mp3;visual;[];None;None;;;;;;205;B;2026-04-01_18h26.56.490;exp_sofc_final;;02.01.2026;5.999.545.237.992.540;2026-04-01 18h26.58.027871 +0200
;36;0;36;;;;None;None;;;;;;;;;;;;;36;0;36;0;711.871.635.899.879;;;;;;;;;;;;;;;;clips/clip_weißt_08_sub_0.mp4;audios/clip_weißt_08_sub_0.mp3;audiovisual;[];None;None;;;;;;205;B;2026-04-01_18h26.56.490;exp_sofc_final;;02.01.2026;5.999.545.237.992.540;2026-04-01 18h26.58.027871 +0200
;37;0;37;;;;1;None;12.845.559.900.160.800;None;;;;;;;;;;;37;0;37;0;7.229.153.716.000.720;;;;;;;;;;;;;;;;clips/clip_herz_09_sub_0.mp4;audios/clip_herz_09_sub_0.mp3;audiovisual;[];1;None;1;12.845.559.900.160.800;None;;;205;B;2026-04-01_18h26.56.490;exp_sofc_final;;02.01.2026;5.999.545.237.992.540;2026-04-01 18h26.58.027871 +0200
;38;0;38;;;;None;None;;;;;;;;;;;;;38;0;38;0;7.481.847.775.001.070;;;;;;;;;;;;;;;;clips/clip_weißt_29_sub_1.mp4;audios/clip_weißt_29_sub_1.mp3;audiovisual;[];None;None;;;;;;205;B;2026-04-01_18h26.56.490;exp_sofc_final;;02.01.2026;5.999.545.237.992.540;2026-04-01 18h26.58.027871 +0200
;39;0;39;;;;4;None;39.341.099.997.982.300;None;;;;;;;;;;;39;0;39;0;7.605.589.691.000.050;;;;;;;;;;;;;;;;clips/clip_lied_03_sub_1.mp4;audios/silence.mp3;visual;[];4;None;4;39.341.099.997.982.300;None;;;205;B;2026-04-01_18h26.56.490;exp_sofc_final;;02.01.2026;5.999.545.237.992.540;2026-04-01 18h26.58.027871 +0200
;40;0;40;;;;None;None;;;;;;;;;;;;;40;0;40;0;7.758.327.274.997.710;;;;;;;;;;;;;;;;clips/clip_hund_12_nosub_1.mp4;audios/silence.mp3;visual;[];None;None;;;;;;205;B;2026-04-01_18h26.56.490;exp_sofc_final;;02.01.2026;5.999.545.237.992.540;2026-04-01 18h26.58.027871 +0200
;41;0;41;;;;None;None;;;;;;;;;;;;;41;0;41;0;7.879.515.343.001.110;;;;;;;;;;;;;;;;clips/clip_herz_05_sub_0.mp4;audios/clip_herz_05_sub_0.mp3;audiovisual;[];None;None;;;;;;205;B;2026-04-01_18h26.56.490;exp_sofc_final;;02.01.2026;5.999.545.237.992.540;2026-04-01 18h26.58.027871 +0200
;42;0;42;;;;None;None;;;;;;;;;;;;;42;0;42;0;7.990.374.766.001.470;;;;;;;;;;;;;;;;clips/clip_wurst_26_nosub_1.mp4;audios/silence.mp3;visual;[0.6974869999103248];None;None;;;;;;205;B;2026-04-01_18h26.56.490;exp_sofc_final;;02.01.2026;5.999.545.237.992.540;2026-04-01 18h26.58.027871 +0200
;43;0;43;;;;None;None;;;;;;;;;;;;;43;0;43;0;8.119.169.983.998.870;;;;;;;;;;;;;;;;clips/clip_wurst_13_sub_0.mp4;audios/clip_wurst_13_sub_0.mp3;audiovisual;[0.5129442000761628];None;None;;;;;;205;B;2026-04-01_18h26.56.490;exp_sofc_final;;02.01.2026;5.999.545.237.992.540;2026-04-01 18h26.58.027871 +0200
;44;0;44;;;;None;None;;;;;;;;;;;;;44;0;44;0;8.223.943.755.999.200;;;;;;;;;;;;;;;;clips/clip_herz_11_nosub_0.mp4;audios/clip_herz_11_nosub_0.mp3;audiovisual;[0.4831052999943495];None;None;;;;;;205;B;2026-04-01_18h26.56.490;exp_sofc_final;;02.01.2026;5.999.545.237.992.540;2026-04-01 18h26.58.027871 +0200
;45;0;45;;;;None;None;;;;;;;;;;;;;45;0;45;0;8.325.578.775.000.750;;;;;;;;;;;;;;;;clips/clip_weißt_22_nosub_0.mp4;audios/clip_weißt_22_nosub_0.mp3;audiovisual;[0.5474124001339078, 0.6739747999235988];None;None;;;;;;205;B;2026-04-01_18h26.56.490;exp_sofc_final;;02.01.2026;5.999.545.237.992.540;2026-04-01 18h26.58.027871 +0200
;46;0;46;;;;None;None;;;;;;;;;;;;;46;0;46;0;8.445.036.710.998.970;;;;;;;;;;;;;;;;clips/clip_wurst_19_nosub_0.mp4;audios/clip_wurst_19_nosub_0.mp3;audiovisual;[0.4516423000022769];None;None;;;;;;205;B;2026-04-01_18h26.56.490;exp_sofc_final;;02.01.2026;5.999.545.237.992.540;2026-04-01 18h26.58.027871 +0200
;47;0;47;;;;None;None;;;;;;;;;;;;;47;0;47;0;8.563.139.289.999.380;;;;;;;;;;;;;;;;clips/clip_holo_07_sub_0.mp4;audios/silence.mp3;visual;[];None;None;;;;;;205;B;2026-04-01_18h26.56.490;exp_sofc_final;;02.01.2026;5.999.545.237.992.540;2026-04-01 18h26.58.027871 +0200
;48;0;48;;;;None;None;;;;;;;;;;;;;48;0;48;0;8.665.456.937.998.530;;;;;;;;;;;;;;;;clips/clip_wurst_23_nosub_2.mp4;audios/clip_wurst_23_nosub_2.mp3;audiovisual;[];None;None;;;;;;205;B;2026-04-01_18h26.56.490;exp_sofc_final;;02.01.2026;5.999.545.237.992.540;2026-04-01 18h26.58.027871 +0200
;49;0;49;;;;None;None;;;;;;;;;;;;;49;0;49;0;877.918.974.199.798;;;;;;;;;;;;;;;;clips/clip_claude_01_nosub_2.mp4;audios/clip_claude_01_nosub_2.mp3;audiovisual;[0.3057571998797357];None;None;;;;;;205;B;2026-04-01_18h26.56.490;exp_sofc_final;;02.01.2026;5.999.545.237.992.540;2026-04-01 18h26.58.027871 +0200
;50;0;50;;;;None;None;;;;;;;;;;;;;50;0;50;0;8.897.626.363.998.270;;;;;;;;;;;;;;;;clips/clip_hund_05_sub_0.mp4;audios/silence.mp3;visual;[];None;None;;;;;;205;B;2026-04-01_18h26.56.490;exp_sofc_final;;02.01.2026;5.999.545.237.992.540;2026-04-01 18h26.58.027871 +0200
;51;0;51;;;;None;None;;;;;;;;;;;;;51;0;51;0;9.016.169.982.999.560;;;;;;;;;;;;;;;;clips/clip_hund_19_sub_0.mp4;audios/clip_hund_19_sub_0.mp3;audiovisual;[];None;None;;;;;;205;B;2026-04-01_18h26.56.490;exp_sofc_final;;02.01.2026;5.999.545.237.992.540;2026-04-01 18h26.58.027871 +0200
;52;0;52;;;;None;None;;;;;;;;;;;;;52;0;52;0;9.137.381.159.998.470;;;;;;;;;;;;;;;;clips/clip_wurst_30_nosub_1.mp4;audios/silence.mp3;visual;[0.6026594000868499];None;None;;;;;;205;B;2026-04-01_18h26.56.490;exp_sofc_final;;02.01.2026;5.999.545.237.992.540;2026-04-01 18h26.58.027871 +0200
;53;0;53;;;;None;None;;;;;;;;;;;;;53;0;53;0;9.246.655.644.001.430;;;;;;;;;;;;;;;;clips/clip_claude_15_sub_0.mp4;audios/clip_claude_15_sub_0.mp3;audiovisual;[];None;None;;;;;;205;B;2026-04-01_18h26.56.490;exp_sofc_final;;02.01.2026;5.999.545.237.992.540;2026-04-01 18h26.58.027871 +0200
;54;0;54;;;;None;None;;;;;;;;;;;;;54;0;54;0;9.375.606.496.999.970;;;;;;;;;;;;;;;;clips/clip_claude_02_sub_1.mp4;audios/silence.mp3;visual;[];None;None;;;;;;205;B;2026-04-01_18h26.56.490;exp_sofc_final;;02.01.2026;5.999.545.237.992.540;2026-04-01 18h26.58.027871 +0200
;55;0;55;;;;None;None;;;;;;;;;;;;;55;0;55;0;9.481.989.376.000.120;;;;;;;;;;;;;;;;clips/clip_claude_17_nosub_1.mp4;audios/clip_claude_17_nosub_1.mp3;audiovisual;[];None;None;;;;;;205;B;2026-04-01_18h26.56.490;exp_sofc_final;;02.01.2026;5.999.545.237.992.540;2026-04-01 18h26.58.027871 +0200
;56;0;56;;;;None;None;;;;;;;;;;;;;56;0;56;0;96.048.798.479.978;;;;;;;;;;;;;;;;clips/clip_holo_13_nosub_1.mp4;audios/silence.mp3;visual;[];None;None;;;;;;205;B;2026-04-01_18h26.56.490;exp_sofc_final;;02.01.2026;5.999.545.237.992.540;2026-04-01 18h26.58.027871 +0200
;57;0;57;;;;None;None;;;;;;;;;;;;;57;0;57;0;9.731.468.715.001.820;;;;;;;;;;;;;;;;clips/clip_weißt_13_sub_0.mp4;audios/silence.mp3;visual;[];None;None;;;;;;205;B;2026-04-01_18h26.56.490;exp_sofc_final;;02.01.2026;5.999.545.237.992.540;2026-04-01 18h26.58.027871 +0200
;58;0;58;;;;None;None;;;;;;;;;;;;;58;0;58;0;9.848.382.779.001.250;;;;;;;;;;;;;;;;clips/clip_holo_14_nosub_0.mp4;audios/clip_holo_14_nosub_0.mp3;audiovisual;[];None;None;;;;;;205;B;2026-04-01_18h26.56.490;exp_sofc_final;;02.01.2026;5.999.545.237.992.540;2026-04-01 18h26.58.027871 +0200
;59;0;59;;;;None;None;;;;;;;;;;;;;59;0;59;0;9.956.179.761.998.350;;;;;;;;;;;;;;;;clips/clip_hund_16_nosub_1.mp4;audios/silence.mp3;visual;[0.3837013002485037];None;None;;;;;;205;B;2026-04-01_18h26.56.490;exp_sofc_final;;02.01.2026;5.999.545.237.992.540;2026-04-01 18h26.58.027871 +0200
;60;0;60;;;;None;None;;;;;;;;;;;;;60;0;60;0;1.127.455.678.400.110;;;;;;;;;;;;;;;;clips/clip_wurst_05_nosub_0.mp4;audios/silence.mp3;visual;[];None;None;;;;;;205;B;2026-04-01_18h26.56.490;exp_sofc_final;;02.01.2026;5.999.545.237.992.540;2026-04-01 18h26.58.027871 +0200
;61;0;61;;;;None;None;;;;;;;;;;;;;61;0;61;0;11.369.668.457.000.500;;;;;;;;;;;;;;;;clips/clip_weißt_04_nosub_0.mp4;audios/silence.mp3;visual;[];None;None;;;;;;205;B;2026-04-01_18h26.56.490;exp_sofc_final;;02.01.2026;5.999.545.237.992.540;2026-04-01 18h26.58.027871 +0200
;62;0;62;;;;None;None;;;;;;;;;;;;;62;0;62;0;11.478.784.746.001.400;;;;;;;;;;;;;;;;clips/clip_claude_25_nosub_0.mp4;audios/clip_claude_25_nosub_0.mp3;audiovisual;[];None;None;;;;;;205;B;2026-04-01_18h26.56.490;exp_sofc_final;;02.01.2026;5.999.545.237.992.540;2026-04-01 18h26.58.027871 +0200
;63;0;63;;;;3;None;5.462.248.799.856.750;None;;;;;;;;;;;63;0;63;0;11.588.946.293.001.000;;;;;;;;;;;;;;;;clips/clip_holo_20_sub_1.mp4;audios/clip_holo_20_sub_1.mp3;audiovisual;[];3;None;3;5.462.248.799.856.750;None;;;205;B;2026-04-01_18h26.56.490;exp_sofc_final;;02.01.2026;5.999.545.237.992.540;2026-04-01 18h26.58.027871 +0200
;64;0;64;;;;None;None;;;;;;;;;;;;;64;0;64;0;11.746.157.268.998.200;;;;;;;;;;;;;;;;clips/clip_holo_15_sub_0.mp4;audios/silence.mp3;visual;[6.69175019999966];None;None;;;;;;205;B;2026-04-01_18h26.56.490;exp_sofc_final;;02.01.2026;5.999.545.237.992.540;2026-04-01 18h26.58.027871 +0200
;65;0;65;;;;None;None;;;;;;;;;;;;;65;0;65;0;11.846.509.929.001.300;;;;;;;;;;;;;;;;clips/clip_weißt_02_sub_0.mp4;audios/silence.mp3;visual;[];None;None;;;;;;205;B;2026-04-01_18h26.56.490;exp_sofc_final;;02.01.2026;5.999.545.237.992.540;2026-04-01 18h26.58.027871 +0200
;66;0;66;;;;None;None;;;;;;;;;;;;;66;0;66;0;1.195.550.249.400.080;;;;;;;;;;;;;;;;clips/clip_claude_05_nosub_2.mp4;audios/clip_claude_05_nosub_2.mp3;audiovisual;[6.40759770013392];None;None;;;;;;205;B;2026-04-01_18h26.56.490;exp_sofc_final;;02.01.2026;5.999.545.237.992.540;2026-04-01 18h26.58.027871 +0200
;67;0;67;;;;None;None;;;;;;;;;;;;;67;0;67;0;12.076.487.977.998.300;;;;;;;;;;;;;;;;clips/clip_claude_04_nosub_2.mp4;audios/silence.mp3;visual;[8.49366409983486];None;None;;;;;;205;B;2026-04-01_18h26.56.490;exp_sofc_final;;02.01.2026;5.999.545.237.992.540;2026-04-01 18h26.58.027871 +0200
;68;0;68;;;;None;None;;;;;;;;;;;;;68;0;68;0;1.217.527.477.600.140;;;;;;;;;;;;;;;;clips/clip_wurst_27_nosub_1.mp4;audios/clip_wurst_27_nosub_1.mp3;audiovisual;[6.713849899824709];None;None;;;;;;205;B;2026-04-01_18h26.56.490;exp_sofc_final;;02.01.2026;5.999.545.237.992.540;2026-04-01 18h26.58.027871 +0200
;69;0;69;;;;None;None;;;;;;;;;;;;;69;0;69;0;12.285.459.067.998.400;;;;;;;;;;;;;;;;clips/clip_weißt_17_sub_0.mp4;audios/silence.mp3;visual;[];None;None;;;;;;205;B;2026-04-01_18h26.56.490;exp_sofc_final;;02.01.2026;5.999.545.237.992.540;2026-04-01 18h26.58.027871 +0200
;70;0;70;;;;None;None;;;;;;;;;;;;;70;0;70;0;12.409.003.420.998.300;;;;;;;;;;;;;;;;clips/clip_holo_22_nosub_1.mp4;audios/clip_holo_22_nosub_1.mp3;audiovisual;[9.136186899617314];None;None;;;;;;205;B;2026-04-01_18h26.56.490;exp_sofc_final;;02.01.2026;5.999.545.237.992.540;2026-04-01 18h26.58.027871 +0200
;71;0;71;;;;None;None;;;;;;;;;;;;;71;0;71;0;12.509.154.256.000.100;;;;;;;;;;;;;;;;clips/clip_claude_14_sub_0.mp4;audios/silence.mp3;visual;[9.021383300423622];None;None;;;;;;205;B;2026-04-01_18h26.56.490;exp_sofc_final;;02.01.2026;5.999.545.237.992.540;2026-04-01 18h26.58.027871 +0200
;72;0;72;;;;None;None;;;;;;;;;;;;;72;0;72;0;1.262.844.734.000.040;;;;;;;;;;;;;;;;clips/clip_wurst_24_sub_1.mp4;audios/silence.mp3;visual;[];None;None;;;;;;205;B;2026-04-01_18h26.56.490;exp_sofc_final;;02.01.2026;5.999.545.237.992.540;2026-04-01 18h26.58.027871 +0200
;73;0;73;;;;2;None;4.155.616.099.946.200;None;;;;;;;;;;;73;0;73;0;12.749.741.871.999.500;;;;;;;;;;;;;;;;clips/clip_herz_12_sub_0.mp4;audios/silence.mp3;visual;[5.770091800019145];2;None;2;4.155.616.099.946.200;None;;;205;B;2026-04-01_18h26.56.490;exp_sofc_final;;02.01.2026;5.999.545.237.992.540;2026-04-01 18h26.58.027871 +0200
;74;0;74;;;;None;None;;;;;;;;;;;;;74;0;74;0;12.891.825.415.999.600;;;;;;;;;;;;;;;;clips/clip_claude_19_sub_0.mp4;audios/clip_claude_19_sub_0.mp3;audiovisual;[1.7740719001740217];None;None;;;;;;205;B;2026-04-01_18h26.56.490;exp_sofc_final;;02.01.2026;5.999.545.237.992.540;2026-04-01 18h26.58.027871 +0200
;75;0;75;;;;4;None;2.683.658.300.433.300;None;;;;;;;;;;;75;0;75;0;13.003.764.138.999.300;;;;;;;;;;;;;;;;clips/clip_wurst_31_nosub_1.mp4;audios/clip_wurst_31_nosub_1.mp3;audiovisual;[0.18591389991343021];4;None;4;2.683.658.300.433.300;None;;;205;B;2026-04-01_18h26.56.490;exp_sofc_final;;02.01.2026;5.999.545.237.992.540;2026-04-01 18h26.58.027871 +0200
;76;0;76;;;;None;None;;;;;;;;;;;;;76;0;76;0;1.314.951.349.100.090;;;;;;;;;;;;;;;;clips/clip_wurst_29_sub_1.mp4;audios/clip_wurst_29_sub_1.mp3;audiovisual;[];None;None;;;;;;205;B;2026-04-01_18h26.56.490;exp_sofc_final;;02.01.2026;5.999.545.237.992.540;2026-04-01 18h26.58.027871 +0200
;77;0;77;;;;None;None;;;;;;;;;;;;;77;0;77;0;13.278.363.462.002.000;;;;;;;;;;;;;;;;clips/clip_hund_27_nosub_1.mp4;audios/clip_hund_27_nosub_1.mp3;audiovisual;[5.0200133002363145];None;None;;;;;;205;B;2026-04-01_18h26.56.490;exp_sofc_final;;02.01.2026;5.999.545.237.992.540;2026-04-01 18h26.58.027871 +0200
;78;0;78;;;;None;None;;;;;;;;;;;;;78;0;78;0;1.338.831.706.599.790;;;;;;;;;;;;;;;;clips/clip_claude_08_nosub_0.mp4;audios/silence.mp3;visual;[];None;None;;;;;;205;B;2026-04-01_18h26.56.490;exp_sofc_final;;02.01.2026;5.999.545.237.992.540;2026-04-01 18h26.58.027871 +0200
;79;0;79;;;;None;None;;;;;;;;;;;;;79;0;79;0;13.493.281.192.001.800;;;;;;;;;;;;;;;;clips/clip_hund_01_sub_0.mp4;audios/clip_hund_01_sub_0.mp3;audiovisual;[];None;None;;;;;;205;B;2026-04-01_18h26.56.490;exp_sofc_final;;02.01.2026;5.999.545.237.992.540;2026-04-01 18h26.58.027871 +0200
;80;0;80;;;;1;None;6.619.846.699.759.360;None;;;;;;;;;;;80;0;80;0;13.609.400.721.001.400;;;;;;;;;;;;;;;;clips/clip_hund_23_sub_1.mp4;audios/clip_hund_23_sub_1.mp3;audiovisual;[0.33371669985353947];1;None;1;6.619.846.699.759.360;None;;;205;B;2026-04-01_18h26.56.490;exp_sofc_final;;02.01.2026;5.999.545.237.992.540;2026-04-01 18h26.58.027871 +0200
;81;0;81;;;;None;None;;;;;;;;;;;;;81;0;81;0;13.793.891.344.000.500;;;;;;;;;;;;;;;;clips/clip_herz_14_nosub_0.mp4;audios/silence.mp3;visual;[];None;None;;;;;;205;B;2026-04-01_18h26.56.490;exp_sofc_final;;02.01.2026;5.999.545.237.992.540;2026-04-01 18h26.58.027871 +0200
;82;0;82;;;;None;None;;;;;;;;;;;;;82;0;82;0;139.069.894.989.999;;;;;;;;;;;;;;;;clips/clip_wurst_18_nosub_0.mp4;audios/silence.mp3;visual;[];None;None;;;;;;205;B;2026-04-01_18h26.56.490;exp_sofc_final;;02.01.2026;5.999.545.237.992.540;2026-04-01 18h26.58.027871 +0200
;83;0;83;;;;None;None;;;;;;;;;;;;;83;0;83;0;14.015.465.687.001.100;;;;;;;;;;;;;;;;clips/clip_hund_29_sub_0.mp4;audios/silence.mp3;visual;[10.668364699929953];None;None;;;;;;205;B;2026-04-01_18h26.56.490;exp_sofc_final;;02.01.2026;5.999.545.237.992.540;2026-04-01 18h26.58.027871 +0200
;84;0;84;;;;None;None;;;;;;;;;;;;;84;0;84;0;14.138.451.274.000.100;;;;;;;;;;;;;;;;clips/clip_claude_10_sub_0.mp4;audios/silence.mp3;visual;[];None;None;;;;;;205;B;2026-04-01_18h26.56.490;exp_sofc_final;;02.01.2026;5.999.545.237.992.540;2026-04-01 18h26.58.027871 +0200
;85;0;85;;;;None;None;;;;;;;;;;;;;85;0;85;0;14.259.197.376.999.000;;;;;;;;;;;;;;;;clips/clip_weißt_25_sub_1.mp4;audios/clip_weißt_25_sub_1.mp3;audiovisual;[6.565641100052744];None;None;;;;;;205;B;2026-04-01_18h26.56.490;exp_sofc_final;;02.01.2026;5.999.545.237.992.540;2026-04-01 18h26.58.027871 +0200
;86;0;86;;;;3;None;3.565.839.699.935.160;None;;;;;;;;;;;86;0;86;0;1.438.839.478.299.950;;;;;;;;;;;;;;;;clips/clip_wurst_06_nosub_2.mp4;audios/clip_wurst_06_nosub_2.mp3;audiovisual;[3.0890660998411477, 8.45676949992776];3;None;3;3.565.839.699.935.160;None;;;205;B;2026-04-01_18h26.56.490;exp_sofc_final;;02.01.2026;5.999.545.237.992.540;2026-04-01 18h26.58.027871 +0200
;87;0;87;;;;None;None;;;;;;;;;;;;;87;0;87;0;14.543.559.198.998.800;;;;;;;;;;;;;;;;clips/clip_lied_08_sub_1.mp4;audios/clip_lied_08_sub_1.mp3;audiovisual;[7.483821699861437];None;None;;;;;;205;B;2026-04-01_18h26.56.490;exp_sofc_final;;02.01.2026;5.999.545.237.992.540;2026-04-01 18h26.58.027871 +0200
;88;0;88;;;;None;None;;;;;;;;;;;;;88;0;88;0;14.643.636.310.999.200;;;;;;;;;;;;;;;;clips/clip_dampf_05_nosub_2.mp4;audios/clip_dampf_05_nosub_2.mp3;audiovisual;[3.561556000262499, 8.48388220043853];None;None;;;;;;205;B;2026-04-01_18h26.56.490;exp_sofc_final;;02.01.2026;5.999.545.237.992.540;2026-04-01 18h26.58.027871 +0200
;89;0;89;;;;None;None;;;;;;;;;;;;;89;0;89;0;14.739.289.787.998.400;;;;;;;;;;;;;;;;clips/clip_claude_09_nosub_2.mp4;audios/clip_claude_09_nosub_2.mp3;audiovisual;[3.8598527000285685, 8.808135100174695];None;None;;;;;;205;B;2026-04-01_18h26.56.490;exp_sofc_final;;02.01.2026;5.999.545.237.992.540;2026-04-01 18h26.58.027871 +0200
;90;0;90;;;;4;None;4.782.471.800.222.990;None;;;;;;;;;;;90;0;90;0;14.849.412.095.998.400;;;;;;;;;;;;;;;;clips/clip_lied_09_nosub_1.mp4;audios/silence.mp3;visual;[];4;None;4;4.782.471.800.222.990;None;;;205;B;2026-04-01_18h26.56.490;exp_sofc_final;;02.01.2026;5.999.545.237.992.540;2026-04-01 18h26.58.027871 +0200
;91;0;91;;;;None;None;;;;;;;;;;;;;91;0;91;0;15.010.625.804.001.400;;;;;;;;;;;;;;;;clips/clip_holo_18_nosub_0.mp4;audios/clip_holo_18_nosub_0.mp3;audiovisual;[6.3253945000469685, 8.677608900237828];None;None;;;;;;205;B;2026-04-01_18h26.56.490;exp_sofc_final;;02.01.2026;5.999.545.237.992.540;2026-04-01 18h26.58.027871 +0200
;92;0;92;;;;None;None;;;;;;;;;;;;;92;0;92;0;15.138.345.277.998.500;;;;;;;;;;;;;;;;clips/clip_lied_22_nosub_1.mp4;audios/silence.mp3;visual;[0.14795139990746975, 6.840384399984032];None;None;;;;;;205;B;2026-04-01_18h26.56.490;exp_sofc_final;;02.01.2026;5.999.545.237.992.540;2026-04-01 18h26.58.027871 +0200
;93;0;93;;;;1;None;2.265.728.270.029.640;None;;;;;;;;;;;93;0;93;0;15.251.935.311.001.700;;;;;;;;;;;;;;;;clips/clip_hund_34_nosub_1.mp4;audios/clip_hund_34_nosub_1.mp3;audiovisual;[];1;None;1;2.265.728.270.029.640;None;;;205;B;2026-04-01_18h26.56.490;exp_sofc_final;;02.01.2026;5.999.545.237.992.540;2026-04-01 18h26.58.027871 +0200
;94;0;94;;;;1;None;3.045.432.100.072.500;None;;;;;;;;;;;94;0;94;0;15.592.044.374.002.100;;;;;;;;;;;;;;;;clips/clip_hund_22_sub_1.mp4;audios/silence.mp3;visual;[9.123320100363344];1;None;1;3.045.432.100.072.500;None;;;205;B;2026-04-01_18h26.56.490;exp_sofc_final;;02.01.2026;5.999.545.237.992.540;2026-04-01 18h26.58.027871 +0200
;95;0;95;;;;None;None;;;;;;;;;;;;;95;0;95;0;15.731.317.636.999.300;;;;;;;;;;;;;;;;clips/clip_wurst_14_nosub_1.mp4;audios/silence.mp3;visual;[7.724565600045025];None;None;;;;;;205;B;2026-04-01_18h26.56.490;exp_sofc_final;;02.01.2026;5.999.545.237.992.540;2026-04-01 18h26.58.027871 +0200
;96;0;96;;;;2;None;37.317.301.998.846.200;None;;;;;;;;;;;96;0;96;0;15.840.469.693.997.800;;;;;;;;;;;;;;;;clips/clip_lied_02_nosub_2.mp4;audios/clip_lied_02_nosub_2.mp3;audiovisual;[7.743536099791527, 9.68844709964469];2;None;2;37.317.301.998.846.200;None;;;205;B;2026-04-01_18h26.56.490;exp_sofc_final;;02.01.2026;5.999.545.237.992.540;2026-04-01 18h26.58.027871 +0200
;97;0;97;;;;None;None;;;;;;;;;;;;;97;0;97;0;15.996.174.727.999.600;;;;;;;;;;;;;;;;clips/clip_holo_01_nosub_1.mp4;audios/silence.mp3;visual;[4.083395999856293];None;None;;;;;;205;B;2026-04-01_18h26.56.490;exp_sofc_final;;02.01.2026;5.999.545.237.992.540;2026-04-01 18h26.58.027871 +0200
;98;0;98;;;;None;None;;;;;;;;;;;;;98;0;98;0;16.096.138.713.997.700;;;;;;;;;;;;;;;;clips/clip_herz_16_sub_0.mp4;audios/silence.mp3;visual;[];None;None;;;;;;205;B;2026-04-01_18h26.56.490;exp_sofc_final;;02.01.2026;5.999.545.237.992.540;2026-04-01 18h26.58.027871 +0200
;99;0;99;;;;None;None;;;;;;;;;;;;;99;0;99;0;1.619.472.838.500.040;;;;;;;;;;;;;;;;clips/clip_hund_03_nosub_1.mp4;audios/silence.mp3;visual;[6.719481499865651];None;None;;;;;;205;B;2026-04-01_18h26.56.490;exp_sofc_final;;02.01.2026;5.999.545.237.992.540;2026-04-01 18h26.58.027871 +0200
;100;0;100;;;;None;None;;;;;;;;;;;;;100;0;100;0;16.324.323.490.997.700;;;;;;;;;;;;;;;;clips/clip_herz_07_nosub_2.mp4;audios/clip_herz_07_nosub_2.mp3;audiovisual;[4.6313006998971105, 10.789109599776566, 11.415894799865782];None;None;;;;;;205;B;2026-04-01_18h26.56.490;exp_sofc_final;;02.01.2026;5.999.545.237.992.540;2026-04-01 18h26.58.027871 +0200
;101;0;101;;;;None;None;;;;;;;;;;;;;101;0;101;0;16.453.502.949.997.700;;;;;;;;;;;;;;;;clips/clip_holo_28_sub_0.mp4;audios/silence.mp3;visual;[];None;None;;;;;;205;B;2026-04-01_18h26.56.490;exp_sofc_final;;02.01.2026;5.999.545.237.992.540;2026-04-01 18h26.58.027871 +0200
;102;0;102;;;;None;None;;;;;;;;;;;;;102;0;102;0;16.547.436.945.000.600;;;;;;;;;;;;;;;;clips/clip_lied_11_sub_1.mp4;audios/silence.mp3;visual;[8.230155800003558];None;None;;;;;;205;B;2026-04-01_18h26.56.490;exp_sofc_final;;02.01.2026;5.999.545.237.992.540;2026-04-01 18h26.58.027871 +0200
;103;0;103;;;;None;None;;;;;;;;;;;;;103;0;103;0;16.666.297.287.000.300;;;;;;;;;;;;;;;;clips/clip_holo_12_sub_1.mp4;audios/clip_holo_12_sub_1.mp3;audiovisual;[8.461488300003111];None;None;;;;;;205;B;2026-04-01_18h26.56.490;exp_sofc_final;;02.01.2026;5.999.545.237.992.540;2026-04-01 18h26.58.027871 +0200
;104;0;104;;;;None;None;;;;;;;;;;;;;104;0;104;0;16.774.281.207.998.200;;;;;;;;;;;;;;;;clips/clip_holo_11_sub_2.mp4;audios/silence.mp3;visual;[5.826346300076693];None;None;;;;;;205;B;2026-04-01_18h26.56.490;exp_sofc_final;;02.01.2026;5.999.545.237.992.540;2026-04-01 18h26.58.027871 +0200
;105;0;105;;;;None;None;;;;;;;;;;;;;105;0;105;0;16.878.921.713.000.100;;;;;;;;;;;;;;;;clips/clip_lied_16_sub_2.mp4;audios/silence.mp3;visual;[5.866538400296122, 7.404049600008875];None;None;;;;;;205;B;2026-04-01_18h26.56.490;exp_sofc_final;;02.01.2026;5.999.545.237.992.540;2026-04-01 18h26.58.027871 +0200
;106;0;106;;;;1;None;4.201.350.000.221.280;None;;;;;;;;;;;106;0;106;0;16.993.274.610.000.600;;;;;;;;;;;;;;;;clips/clip_wurst_04_sub_2.mp4;audios/clip_wurst_04_sub_2.mp3;audiovisual;[5.701152199879289, 7.1318810996599495];1;None;1;4.201.350.000.221.280;None;;;205;B;2026-04-01_18h26.56.490;exp_sofc_final;;02.01.2026;5.999.545.237.992.540;2026-04-01 18h26.58.027871 +0200
;107;0;107;;;;None;None;;;;;;;;;;;;;107;0;107;0;17.160.339.823.001.900;;;;;;;;;;;;;;;;clips/clip_lied_18_nosub_2.mp4;audios/silence.mp3;visual;[5.402687600348145, 7.6799912001006305];None;None;;;;;;205;B;2026-04-01_18h26.56.490;exp_sofc_final;;02.01.2026;5.999.545.237.992.540;2026-04-01 18h26.58.027871 +0200
;108;0;108;;;;None;None;;;;;;;;;;;;;108;0;108;0;1.727.544.231.500.010;;;;;;;;;;;;;;;;clips/clip_hund_21_nosub_1.mp4;audios/clip_hund_21_nosub_1.mp3;audiovisual;[6.6346660000272095];None;None;;;;;;205;B;2026-04-01_18h26.56.490;exp_sofc_final;;02.01.2026;5.999.545.237.992.540;2026-04-01 18h26.58.027871 +0200
;109;0;109;;;;None;None;;;;;;;;;;;;;109;0;109;0;17.383.914.395.999.100;;;;;;;;;;;;;;;;clips/clip_hund_20_nosub_0.mp4;audios/silence.mp3;visual;[];None;None;;;;;;205;B;2026-04-01_18h26.56.490;exp_sofc_final;;02.01.2026;5.999.545.237.992.540;2026-04-01 18h26.58.027871 +0200
;110;0;110;;;;None;None;;;;;;;;;;;;;110;0;110;0;1.750.786.133.099.810;;;;;;;;;;;;;;;;clips/clip_weißt_12_nosub_1.mp4;audios/clip_weißt_12_nosub_1.mp3;audiovisual;[9.280465099960566];None;None;;;;;;205;B;2026-04-01_18h26.56.490;exp_sofc_final;;02.01.2026;5.999.545.237.992.540;2026-04-01 18h26.58.027871 +0200
;111;0;111;;;;None;None;;;;;;;;;;;;;111;0;111;0;17.635.292.266.001.900;;;;;;;;;;;;;;;;clips/clip_lied_15_nosub_2.mp4;audios/clip_lied_15_nosub_2.mp3;audiovisual;[5.294283300172538, 6.857279099989682];None;None;;;;;;205;B;2026-04-01_18h26.56.490;exp_sofc_final;;02.01.2026;5.999.545.237.992.540;2026-04-01 18h26.58.027871 +0200
;112;0;112;;;;None;None;;;;;;;;;;;;;112;0;112;0;17.716.614.663.000.200;;;;;;;;;;;;;;;;clips/clip_lied_20_sub_2.mp4;audios/silence.mp3;visual;[3.8362099998630583, 8.383246299810708];None;None;;;;;;205;B;2026-04-01_18h26.56.490;exp_sofc_final;;02.01.2026;5.999.545.237.992.540;2026-04-01 18h26.58.027871 +0200
;113;0;113;;;;None;None;;;;;;;;;;;;;113;0;113;0;1.783.199.278.099.920;;;;;;;;;;;;;;;;clips/clip_lied_04_sub_0.mp4;audios/clip_lied_04_sub_0.mp3;audiovisual;[];None;None;;;;;;205;B;2026-04-01_18h26.56.490;exp_sofc_final;;02.01.2026;5.999.545.237.992.540;2026-04-01 18h26.58.027871 +0200
;114;0;114;;;;None;None;;;;;;;;;;;;;114;0;114;0;17.949.766.600.001.600;;;;;;;;;;;;;;;;clips/clip_claude_13_nosub_0.mp4;audios/clip_claude_13_nosub_0.mp3;audiovisual;[];None;None;;;;;;205;B;2026-04-01_18h26.56.490;exp_sofc_final;;02.01.2026;5.999.545.237.992.540;2026-04-01 18h26.58.027871 +0200
;115;0;115;;;;None;None;;;;;;;;;;;;;115;0;115;0;18.050.363.043.001.800;;;;;;;;;;;;;;;;clips/clip_claude_23_sub_0.mp4;audios/clip_claude_23_sub_0.mp3;audiovisual;[];None;None;;;;;;205;B;2026-04-01_18h26.56.490;exp_sofc_final;;02.01.2026;5.999.545.237.992.540;2026-04-01 18h26.58.027871 +0200
;116;0;116;;;;None;None;;;;;;;;;;;;;116;0;116;0;1.818.001.381.999.810;;;;;;;;;;;;;;;;clips/clip_hund_35_sub_0.mp4;audios/silence.mp3;visual;[];None;None;;;;;;205;B;2026-04-01_18h26.56.490;exp_sofc_final;;02.01.2026;5.999.545.237.992.540;2026-04-01 18h26.58.027871 +0200
;117;0;117;;;;None;None;;;;;;;;;;;;;117;0;117;0;18.292.789.063.998.400;;;;;;;;;;;;;;;;clips/clip_dampf_01_nosub_0.mp4;audios/clip_dampf_01_nosub_0.mp3;audiovisual;[];None;None;;;;;;205;B;2026-04-01_18h26.56.490;exp_sofc_final;;02.01.2026;5.999.545.237.992.540;2026-04-01 18h26.58.027871 +0200
;118;0;118;;;;None;None;;;;;;;;;;;;;118;0;118;0;18.395.511.384.001.000;;;;;;;;;;;;;;;;clips/clip_holo_04_sub_2.mp4;audios/clip_holo_04_sub_2.mp3;audiovisual;[3.1658991002477705, 7.101281799841672];None;None;;;;;;205;B;2026-04-01_18h26.56.490;exp_sofc_final;;02.01.2026;5.999.545.237.992.540;2026-04-01 18h26.58.027871 +0200
;119;0;119;;;;None;space;;;1.790.593.500.016.250;None;;;;;;;;;119;0;119;0;18.523.684.696.001;;;;;;;;;;;;;;;;clips/clip_claude_26_sub_0.mp4;audios/silence.mp3;visual;[4.109530000016093];None;space;;;;1.790.593.500.016.250;None;205;B;2026-04-01_18h26.56.490;exp_sofc_final;;02.01.2026;5.999.545.237.992.540;2026-04-01 18h26.58.027871 +0200
;120;0;120;;;;1;None;7.592.326.399.870.210;None;;;;;;;;;;;120;0;120;0;18.821.056.940.001.400;;;;;;;;;;;;;;;;clips/clip_lied_07_sub_1.mp4;audios/silence.mp3;visual;[4.468517100438476];1;None;1;7.592.326.399.870.210;None;;;205;B;2026-04-01_18h26.56.490;exp_sofc_final;;02.01.2026;5.999.545.237.992.540;2026-04-01 18h26.58.027871 +0200
;121;0;121;;;;4;None;4.373.917.799.908.660;None;;;;;;;;;;;121;0;121;0;18.995.982.812.000.400;;;;;;;;;;;;;;;;clips/clip_holo_06_nosub_2.mp4;audios/clip_holo_06_nosub_2.mp3;audiovisual;[4.981900900136679];4;None;4;4.373.917.799.908.660;None;;;205;B;2026-04-01_18h26.56.490;exp_sofc_final;;02.01.2026;5.999.545.237.992.540;2026-04-01 18h26.58.027871 +0200
;122;0;122;;;;None;None;;;;;;;;;;;;;122;0;122;0;191.459.592.969.995;;;;;;;;;;;;;;;;clips/clip_dampf_02_sub_1.mp4;audios/silence.mp3;visual;[4.898869499564171];None;None;;;;;;205;B;2026-04-01_18h26.56.490;exp_sofc_final;;02.01.2026;5.999.545.237.992.540;2026-04-01 18h26.58.027871 +0200
;123;0;123;;;;None;None;;;;;;;;;;;;;123;0;123;0;19.247.360.431.998.900;;;;;;;;;;;;;;;;clips/clip_hund_04_nosub_0.mp4;audios/clip_hund_04_nosub_0.mp3;audiovisual;[];None;None;;;;;;205;B;2026-04-01_18h26.56.490;exp_sofc_final;;02.01.2026;5.999.545.237.992.540;2026-04-01 18h26.58.027871 +0200
;124;0;124;;;;2;None;423.845.179.984.346;None;;;;;;;;;;;124;0;124;0;19.350.445.177.000.900;;;;;;;;;;;;;;;;clips/clip_hund_14_sub_2.mp4;audios/silence.mp3;visual;[5.847937799990177];2;None;2;423.845.179.984.346;None;;;205;B;2026-04-01_18h26.56.490;exp_sofc_final;;02.01.2026;5.999.545.237.992.540;2026-04-01 18h26.58.027871 +0200
;125;0;125;;;;None;None;;;;;;;;;;;;;125;0;125;0;19.500.814.295.001.300;;;;;;;;;;;;;;;;clips/clip_claude_12_nosub_0.mp4;audios/silence.mp3;visual;[];None;None;;;;;;205;B;2026-04-01_18h26.56.490;exp_sofc_final;;02.01.2026;5.999.545.237.992.540;2026-04-01 18h26.58.027871 +0200
;126;0;126;;;;4;None;4.457.299.300.003.790;None;;;;;;;;;;;126;0;126;0;19.601.010.956.000.500;;;;;;;;;;;;;;;;clips/clip_weißt_20_nosub_1.mp4;audios/silence.mp3;visual;[1.627066900022328, 7.788055600132793];4;None;4;4.457.299.300.003.790;None;;;205;B;2026-04-01_18h26.56.490;exp_sofc_final;;02.01.2026;5.999.545.237.992.540;2026-04-01 18h26.58.027871 +0200
;127;0;127;;;;None;None;;;;;;;;;;;;;127;0;127;0;19.752.415.220.998.200;;;;;;;;;;;;;;;;clips/clip_weißt_07_sub_1.mp4;audios/silence.mp3;visual;[4.161613800097257];None;None;;;;;;205;B;2026-04-01_18h26.56.490;exp_sofc_final;;02.01.2026;5.999.545.237.992.540;2026-04-01 18h26.58.027871 +0200
;128;0;128;;;;None;None;;;;;;;;;;;;;128;0;128;0;1.985.792.276.499.790;;;;;;;;;;;;;;;;clips/clip_holo_10_nosub_1.mp4;audios/clip_holo_10_nosub_1.mp3;audiovisual;[0.44216329976916313, 5.854405200108886];None;None;;;;;;205;B;2026-04-01_18h26.56.490;exp_sofc_final;;02.01.2026;5.999.545.237.992.540;2026-04-01 18h26.58.027871 +0200
;129;0;129;;;;None;None;;;;;;;;;;;;;129;0;129;0;19.965.431.145.997.700;;;;;;;;;;;;;;;;clips/clip_wurst_34_nosub_2.mp4;audios/silence.mp3;visual;[4.251975799910724, 6.30590679962188];None;None;;;;;;205;B;2026-04-01_18h26.56.490;exp_sofc_final;;02.01.2026;5.999.545.237.992.540;2026-04-01 18h26.58.027871 +0200
;130;0;130;;;;None;None;;;;;;;;;;;;;130;0;130;0;20.059.042.572.001.900;;;;;;;;;;;;;;;;clips/clip_herz_17_sub_0.mp4;audios/clip_herz_17_sub_0.mp3;audiovisual;[6.072300199884921];None;None;;;;;;205;B;2026-04-01_18h26.56.490;exp_sofc_final;;02.01.2026;5.999.545.237.992.540;2026-04-01 18h26.58.027871 +0200
;131;0;131;;;;None;None;;;;;;;;;;;;;131;0;131;0;20.149.705.771.999.400;;;;;;;;;;;;;;;;clips/clip_holo_27_nosub_1.mp4;audios/clip_holo_27_nosub_1.mp3;audiovisual;[5.498068999964744];None;None;;;;;;205;B;2026-04-01_18h26.56.490;exp_sofc_final;;02.01.2026;5.999.545.237.992.540;2026-04-01 18h26.58.027871 +0200
;132;0;132;;;;None;None;;;;;;;;;;;;;132;0;132;0;20.258.947.270.000.300;;;;;;;;;;;;;;;;clips/clip_holo_02_nosub_2.mp4;audios/clip_holo_02_nosub_2.mp3;audiovisual;[4.052108500152826, 8.00566119980067];None;None;;;;;;205;B;2026-04-01_18h26.56.490;exp_sofc_final;;02.01.2026;5.999.545.237.992.540;2026-04-01 18h26.58.027871 +0200
;133;0;133;;;;None;None;;;;;;;;;;;;;133;0;133;0;20.380.199.120.999.300;;;;;;;;;;;;;;;;clips/clip_hund_32_nosub_1.mp4;audios/silence.mp3;visual;[4.933751799631864, 6.724410199560225];None;None;;;;;;205;B;2026-04-01_18h26.56.490;exp_sofc_final;;02.01.2026;5.999.545.237.992.540;2026-04-01 18h26.58.027871 +0200
;134;0;134;;;;None;None;;;;;;;;;;;;;134;0;134;0;2.048.744.538.300.200;;;;;;;;;;;;;;;;clips/clip_lied_12_sub_0.mp4;audios/clip_lied_12_sub_0.mp3;audiovisual;[];None;None;;;;;;205;B;2026-04-01_18h26.56.490;exp_sofc_final;;02.01.2026;5.999.545.237.992.540;2026-04-01 18h26.58.027871 +0200
;135;0;135;;;;None;None;;;;;;;;;;;;;135;0;135;0;20.585.443.347.999.800;;;;;;;;;;;;;;;;clips/clip_claude_27_sub_0.mp4;audios/clip_claude_27_sub_0.mp3;audiovisual;[];None;None;;;;;;205;B;2026-04-01_18h26.56.490;exp_sofc_final;;02.01.2026;5.999.545.237.992.540;2026-04-01 18h26.58.027871 +0200
;136;0;136;;;;None;None;;;;;;;;;;;;;136;0;136;0;2.071.379.592.999.810;;;;;;;;;;;;;;;;clips/clip_hund_15_sub_1.mp4;audios/clip_hund_15_sub_1.mp3;audiovisual;[4.7559871999546885];None;None;;;;;;205;B;2026-04-01_18h26.56.490;exp_sofc_final;;02.01.2026;5.999.545.237.992.540;2026-04-01 18h26.58.027871 +0200
;137;0;137;;;;None;None;;;;;;;;;;;;;137;0;137;0;20.828.452.208.000.200;;;;;;;;;;;;;;;;clips/clip_weißt_11_nosub_0.mp4;audios/silence.mp3;visual;[1.7940219002775848];None;None;;;;;;205;B;2026-04-01_18h26.56.490;exp_sofc_final;;02.01.2026;5.999.545.237.992.540;2026-04-01 18h26.58.027871 +0200
;138;0;138;;;;None;None;;;;;;;;;;;;;138;0;138;0;2.093.676.688.400.090;;;;;;;;;;;;;;;;clips/clip_hund_13_nosub_1.mp4;audios/clip_hund_13_nosub_1.mp3;audiovisual;[5.95166359981522];None;None;;;;;;205;B;2026-04-01_18h26.56.490;exp_sofc_final;;02.01.2026;5.999.545.237.992.540;2026-04-01 18h26.58.027871 +0200
;139;0;139;;;;None;None;;;;;;;;;;;;;139;0;139;0;21.062.781.306.998.800;;;;;;;;;;;;;;;;clips/clip_holo_09_nosub_2.mp4;audios/silence.mp3;visual;[];None;None;;;;;;205;B;2026-04-01_18h26.56.490;exp_sofc_final;;02.01.2026;5.999.545.237.992.540;2026-04-01 18h26.58.027871 +0200
;140;0;140;;;;None;None;;;;;;;;;;;;;140;0;140;0;21.185.224.990.998.300;;;;;;;;;;;;;;;;clips/clip_weißt_27_nosub_1.mp4;audios/clip_weißt_27_nosub_1.mp3;audiovisual;[7.981465399730951];None;None;;;;;;205;B;2026-04-01_18h26.56.490;exp_sofc_final;;02.01.2026;5.999.545.237.992.540;2026-04-01 18h26.58.027871 +0200
;141;0;141;;;;None;None;;;;;;;;;;;;;141;0;141;0;21.294.441.003.999.600;;;;;;;;;;;;;;;;clips/clip_wurst_08_sub_1.mp4;audios/clip_wurst_08_sub_1.mp3;audiovisual;[5.678715200163424];None;None;;;;;;205;B;2026-04-01_18h26.56.490;exp_sofc_final;;02.01.2026;5.999.545.237.992.540;2026-04-01 18h26.58.027871 +0200
;142;0;142;;;;None;None;;;;;;;;;;;;;142;0;142;0;2.138.791.131.900.150;;;;;;;;;;;;;;;;clips/clip_weißt_28_sub_1.mp4;audios/silence.mp3;visual;[2.0379359000362456, 6.784249099902809];None;None;;;;;;205;B;2026-04-01_18h26.56.490;exp_sofc_final;;02.01.2026;5.999.545.237.992.540;2026-04-01 18h26.58.027871 +0200
;143;0;143;;;;None;None;;;;;;;;;;;;;143;0;143;0;21.497.700.378.000.700;;;;;;;;;;;;;;;;clips/clip_weißt_26_nosub_1.mp4;audios/silence.mp3;visual;[7.345710900146514];None;None;;;;;;205;B;2026-04-01_18h26.56.490;exp_sofc_final;;02.01.2026;5.999.545.237.992.540;2026-04-01 18h26.58.027871 +0200
;144;0;144;;;;None;None;;;;;;;;;;;;;144;0;144;0;21.607.526.187.999.100;;;;;;;;;;;;;;;;clips/clip_weißt_15_nosub_1.mp4;audios/silence.mp3;visual;[2.9460181002505124];None;None;;;;;;205;B;2026-04-01_18h26.56.490;exp_sofc_final;;02.01.2026;5.999.545.237.992.540;2026-04-01 18h26.58.027871 +0200
;145;0;145;;;;None;None;;;;;;;;;;;;;145;0;145;0;21.725.957.073.997.700;;;;;;;;;;;;;;;;clips/clip_weißt_03_sub_0.mp4;audios/clip_weißt_03_sub_0.mp3;audiovisual;[];None;None;;;;;;205;B;2026-04-01_18h26.56.490;exp_sofc_final;;02.01.2026;5.999.545.237.992.540;2026-04-01 18h26.58.027871 +0200
;146;0;146;;;;None;None;;;;;;;;;;;;;146;0;146;0;2.185.394.656.999.960;;;;;;;;;;;;;;;;clips/clip_claude_03_sub_1.mp4;audios/clip_claude_03_sub_1.mp3;audiovisual;[5.50204040016979];None;None;;;;;;205;B;2026-04-01_18h26.56.490;exp_sofc_final;;02.01.2026;5.999.545.237.992.540;2026-04-01 18h26.58.027871 +0200
;147;0;147;;;;1;None;37.745.208.996.348.000;None;;;;;;;;;;;147;0;147;0;2.197.716.830.300.160;;;;;;;;;;;;;;;;clips/clip_lied_05_nosub_0.mp4;audios/silence.mp3;visual;[];1;None;1;37.745.208.996.348.000;None;;;205;B;2026-04-01_18h26.56.490;exp_sofc_final;;02.01.2026;5.999.545.237.992.540;2026-04-01 18h26.58.027871 +0200
;148;0;148;;;;None;None;;;;;;;;;;;;;148;0;148;0;22.117.806.067.001.000;;;;;;;;;;;;;;;;clips/clip_dampf_03_sub_1.mp4;audios/clip_dampf_03_sub_1.mp3;audiovisual;[7.690579200163484];None;None;;;;;;205;B;2026-04-01_18h26.56.490;exp_sofc_final;;02.01.2026;5.999.545.237.992.540;2026-04-01 18h26.58.027871 +0200
;149;0;149;;;;None;None;;;;;;;;;;;;;149;0;149;0;22.201.984.549.998.300;;;;;;;;;;;;;;;;clips/clip_wurst_01_nosub_0.mp4;audios/clip_wurst_01_nosub_0.mp3;audiovisual;[];None;None;;;;;;205;B;2026-04-01_18h26.56.490;exp_sofc_final;;02.01.2026;5.999.545.237.992.540;2026-04-01 18h26.58.027871 +0200
;150;0;150;;;;None;None;;;;;;;;;;;;;150;0;150;0;2.230.926.284.200.040;;;;;;;;;;;;;;;;clips/clip_dampf_06_sub_2.mp4;audios/silence.mp3;visual;[];None;None;;;;;;205;B;2026-04-01_18h26.56.490;exp_sofc_final;;02.01.2026;5.999.545.237.992.540;2026-04-01 18h26.58.027871 +0200
;151;0;151;;;;None;None;;;;;;;;;;;;;151;0;151;0;2.240.857.229.200.190;;;;;;;;;;;;;;;;clips/clip_holo_08_sub_2.mp4;audios/clip_holo_08_sub_2.mp3;audiovisual;[8.521940200123936, 10.011076500173658];None;None;;;;;;205;B;2026-04-01_18h26.56.490;exp_sofc_final;;02.01.2026;5.999.545.237.992.540;2026-04-01 18h26.58.027871 +0200
;152;0;152;;;;None;None;;;;;;;;;;;;;152;0;152;0;22.530.778.602.999.600;;;;;;;;;;;;;;;;clips/clip_holo_23_sub_1.mp4;audios/silence.mp3;visual;[];None;None;;;;;;205;B;2026-04-01_18h26.56.490;exp_sofc_final;;02.01.2026;5.999.545.237.992.540;2026-04-01 18h26.58.027871 +0200
;153;0;153;;;;3;None;27.981.361.001.729.900;None;;;;;;;;;;;153;0;153;0;2.263.633.962.899.910;;;;;;;;;;;;;;;;clips/clip_lied_17_sub_2.mp4;audios/clip_lied_17_sub_2.mp3;audiovisual;[7.9381899000145495];3;None;3;27.981.361.001.729.900;None;;;205;B;2026-04-01_18h26.56.490;exp_sofc_final;;02.01.2026;5.999.545.237.992.540;2026-04-01 18h26.58.027871 +0200
;154;0;154;;;;2;None;3.731.927.300.337.700;None;;;;;;;;;;;154;0;154;0;22.773.397.646.998.000;;;;;;;;;;;;;;;;clips/clip_wurst_25_sub_1.mp4;audios/clip_wurst_25_sub_1.mp3;audiovisual;[];2;None;2;3.731.927.300.337.700;None;;;205;B;2026-04-01_18h26.56.490;exp_sofc_final;;02.01.2026;5.999.545.237.992.540;2026-04-01 18h26.58.027871 +0200
;155;0;155;;;;None;None;;;;;;;;;;;;;155;0;155;0;22.931.430.798.000.600;;;;;;;;;;;;;;;;clips/clip_herz_15_nosub_0.mp4;audios/clip_herz_15_nosub_0.mp3;audiovisual;[3.4310133000835776, 7.7938458998687565];None;None;;;;;;205;B;2026-04-01_18h26.56.490;exp_sofc_final;;02.01.2026;5.999.545.237.992.540;2026-04-01 18h26.58.027871 +0200
;156;0;156;;;;None;None;;;;;;;;;;;;;156;0;156;0;23.059.488.061.000.500;;;;;;;;;;;;;;;;clips/clip_wurst_36_sub_0.mp4;audios/silence.mp3;visual;[];None;None;;;;;;205;B;2026-04-01_18h26.56.490;exp_sofc_final;;02.01.2026;5.999.545.237.992.540;2026-04-01 18h26.58.027871 +0200
;157;0;157;;;;None;None;;;;;;;;;;;;;157;0;157;0;2.316.681.479.400.020;;;;;;;;;;;;;;;;clips/clip_wurst_15_nosub_2.mp4;audios/clip_wurst_15_nosub_2.mp3;audiovisual;[5.311637000180781, 7.889877300243825];None;None;;;;;;205;B;2026-04-01_18h26.56.490;exp_sofc_final;;02.01.2026;5.999.545.237.992.540;2026-04-01 18h26.58.027871 +0200
;158;0;158;;;;None;None;;;;;;;;;;;;;158;0;158;0;23.269.269.317.002.000;;;;;;;;;;;;;;;;clips/clip_holo_26_nosub_2.mp4;audios/silence.mp3;visual;[6.275404599960893, 8.139542300254107];None;None;;;;;;205;B;2026-04-01_18h26.56.490;exp_sofc_final;;02.01.2026;5.999.545.237.992.540;2026-04-01 18h26.58.027871 +0200
;159;0;159;;;;None;None;;;;;;;;;;;;;159;0;159;0;2.336.925.752.699.840;;;;;;;;;;;;;;;;clips/clip_weißt_30_nosub_2.mp4;audios/silence.mp3;visual;[3.0666789999231696, 12.439336800016463];None;None;;;;;;205;B;2026-04-01_18h26.56.490;exp_sofc_final;;02.01.2026;5.999.545.237.992.540;2026-04-01 18h26.58.027871 +0200
;160;0;160;;;;None;None;;;;;;;;;;;;;160;0;160;0;23.498.272.735.998.000;;;;;;;;;;;;;;;;clips/clip_wurst_21_sub_0.mp4;audios/clip_wurst_21_sub_0.mp3;audiovisual;[];None;None;;;;;;205;B;2026-04-01_18h26.56.490;exp_sofc_final;;02.01.2026;5.999.545.237.992.540;2026-04-01 18h26.58.027871 +0200
;161;0;161;;;;3;None;3.494.914.799.928.660;None;;;;;;;;;;;161;0;161;0;23.611.132.954.000.400;;;;;;;;;;;;;;;;clips/clip_lied_14_nosub_0.mp4;audios/silence.mp3;visual;[];3;None;3;3.494.914.799.928.660;None;;;205;B;2026-04-01_18h26.56.490;exp_sofc_final;;02.01.2026;5.999.545.237.992.540;2026-04-01 18h26.58.027871 +0200
;162;0;162;;;;None;None;;;;;;;;;;;;;162;0;162;0;23.751.740.875.001.900;;;;;;;;;;;;;;;;clips/clip_wurst_07_sub_0.mp4;audios/silence.mp3;visual;[];None;None;;;;;;205;B;2026-04-01_18h26.56.490;exp_sofc_final;;02.01.2026;5.999.545.237.992.540;2026-04-01 18h26.58.027871 +0200
;163;0;163;;;;None;None;;;;;;;;;;;;;163;0;163;0;2.386.070.887.700.180;;;;;;;;;;;;;;;;clips/clip_lied_10_nosub_1.mp4;audios/clip_lied_10_nosub_1.mp3;audiovisual;[4.6398058999329805];None;None;;;;;;205;B;2026-04-01_18h26.56.490;exp_sofc_final;;02.01.2026;5.999.545.237.992.540;2026-04-01 18h26.58.027871 +0200
;164;0;164;;;;4;None;13.148.263.299.837.700;None;;;;;;;;;;;164;0;164;0;23.984.420.722.997.700;;;;;;;;;;;;;;;;clips/clip_claude_11_sub_0.mp4;audios/clip_claude_11_sub_0.mp3;audiovisual;[];4;None;2;13.148.263.299.837.700;None;;;205;B;2026-04-01_18h26.56.490;exp_sofc_final;;02.01.2026;5.999.545.237.992.540;2026-04-01 18h26.58.027871 +0200
;165;0;165;;;;None;None;;;;;;;;;;;;;165;0;165;0;2.422.494.891.999.750;;;;;;;;;;;;;;;;clips/clip_hund_24_nosub_1.mp4;audios/silence.mp3;visual;[8.297328100074083];None;None;;;;;;205;B;2026-04-01_18h26.56.490;exp_sofc_final;;02.01.2026;5.999.545.237.992.540;2026-04-01 18h26.58.027871 +0200
;166;0;166;;;;None;None;;;;;;;;;;;;;166;0;166;0;24.352.948.246.998.700;;;;;;;;;;;;;;;;clips/clip_claude_24_nosub_1.mp4;audios/silence.mp3;visual;[6.162004000041634];None;None;;;;;;205;B;2026-04-01_18h26.56.490;exp_sofc_final;;02.01.2026;5.999.545.237.992.540;2026-04-01 18h26.58.027871 +0200
;167;0;167;;;;None;None;;;;;;;;;;;;;167;0;167;0;2.442.409.599.499.770;;;;;;;;;;;;;;;;clips/clip_wurst_17_sub_0.mp4;audios/clip_wurst_17_sub_0.mp3;audiovisual;[];None;None;;;;;;205;B;2026-04-01_18h26.56.490;exp_sofc_final;;02.01.2026;5.999.545.237.992.540;2026-04-01 18h26.58.027871 +0200
;168;0;168;;;;None;None;;;;;;;;;;;;;168;0;168;0;2.451.210.949.299.850;;;;;;;;;;;;;;;;clips/clip_herz_10_nosub_0.mp4;audios/silence.mp3;visual;[];None;None;;;;;;205;B;2026-04-01_18h26.56.490;exp_sofc_final;;02.01.2026;5.999.545.237.992.540;2026-04-01 18h26.58.027871 +0200
;169;0;169;;;;None;None;;;;;;;;;;;;;169;0;169;0;24.620.651.489.999.100;;;;;;;;;;;;;;;;clips/clip_wurst_11_nosub_0.mp4;audios/clip_wurst_11_nosub_0.mp3;audiovisual;[];None;None;;;;;;205;B;2026-04-01_18h26.56.490;exp_sofc_final;;02.01.2026;5.999.545.237.992.540;2026-04-01 18h26.58.027871 +0200
;170;0;170;;;;None;None;;;;;;;;;;;;;170;0;170;0;24.748.463.567.001.700;;;;;;;;;;;;;;;;clips/clip_wurst_10_nosub_2.mp4;audios/silence.mp3;visual;[4.736740900203586, 7.326647900044918];None;None;;;;;;205;B;2026-04-01_18h26.56.490;exp_sofc_final;;02.01.2026;5.999.545.237.992.540;2026-04-01 18h26.58.027871 +0200
;171;0;171;;;;3;None;5.733.007.600.065.320;None;;;;;;;;;;;171;0;171;0;24.845.458.750.999.500;;;;;;;;;;;;;;;;clips/clip_herz_13_sub_0.mp4;audios/clip_herz_13_sub_0.mp3;audiovisual;[10.458662699908018];3;None;3;5.733.007.600.065.320;None;;;205;B;2026-04-01_18h26.56.490;exp_sofc_final;;02.01.2026;5.999.545.237.992.540;2026-04-01 18h26.58.027871 +0200
;172;0;172;;;;None;None;;;;;;;;;;;;;172;0;172;0;2.502.241.985.199.970;;;;;;;;;;;;;;;;clips/clip_claude_22_sub_2.mp4;audios/silence.mp3;visual;[8.52540640020743];None;None;;;;;;205;B;2026-04-01_18h26.56.490;exp_sofc_final;;02.01.2026;5.999.545.237.992.540;2026-04-01 18h26.58.027871 +0200
;173;0;173;;;;None;None;;;;;;;;;;;;;173;0;173;0;25.138.508.533.998.300;;;;;;;;;;;;;;;;clips/clip_weißt_19_sub_1.mp4;audios/clip_weißt_19_sub_1.mp3;audiovisual;[];None;None;;;;;;205;B;2026-04-01_18h26.56.490;exp_sofc_final;;02.01.2026;5.999.545.237.992.540;2026-04-01 18h26.58.027871 +0200
;174;0;174;;;;None;None;;;;;;;;;;;;;174;0;174;0;25.246.556.375.999.900;;;;;;;;;;;;;;;;clips/clip_claude_29_nosub_0.mp4;audios/silence.mp3;visual;[1.5501956003718078];None;None;;;;;;205;B;2026-04-01_18h26.56.490;exp_sofc_final;;02.01.2026;5.999.545.237.992.540;2026-04-01 18h26.58.027871 +0200
;175;0;175;;;;None;None;;;;;;;;;;;;;175;0;175;0;25.355.237.996.000.700;;;;;;;;;;;;;;;;clips/clip_hund_36_sub_2.mp4;audios/clip_hund_36_sub_2.mp3;audiovisual;[2.825106999836862, 5.752857899758965];None;None;;;;;;205;B;2026-04-01_18h26.56.490;exp_sofc_final;;02.01.2026;5.999.545.237.992.540;2026-04-01 18h26.58.027871 +0200
;176;0;176;;;;None;None;;;;;;;;;;;;;176;0;176;0;2.545.559.746.599.750;;;;;;;;;;;;;;;;clips/clip_claude_21_nosub_1.mp4;audios/clip_claude_21_nosub_1.mp3;audiovisual;[9.813247099984437];None;None;;;;;;205;B;2026-04-01_18h26.56.490;exp_sofc_final;;02.01.2026;5.999.545.237.992.540;2026-04-01 18h26.58.027871 +0200
;177;0;177;;;;None;None;;;;;;;;;;;;;177;0;177;0;25.586.858.609.002.000;;;;;;;;;;;;;;;;clips/clip_hund_09_nosub_2.mp4;audios/clip_hund_09_nosub_2.mp3;audiovisual;[5.534302199725062, 10.523327799979597];None;None;;;;;;205;B;2026-04-01_18h26.56.490;exp_sofc_final;;02.01.2026;5.999.545.237.992.540;2026-04-01 18h26.58.027871 +0200
;178;0;178;;;;None;None;;;;;;;;;;;;;178;0;178;0;25.710.729.040.000.500;;;;;;;;;;;;;;;;clips/clip_herz_01_sub_1.mp4;audios/clip_herz_01_sub_1.mp3;audiovisual;[6.150308500044048];None;None;;;;;;205;B;2026-04-01_18h26.56.490;exp_sofc_final;;02.01.2026;5.999.545.237.992.540;2026-04-01 18h26.58.027871 +0200
;179;0;179;;;;None;None;;;;;;;;;;;;;179;0;179;0;25.824.895.603.000.100;;;;;;;;;;;;;;;;clips/clip_weißt_06_nosub_0.mp4;audios/clip_weißt_06_nosub_0.mp3;audiovisual;[5.795920999720693];None;None;;;;;;205;B;2026-04-01_18h26.56.490;exp_sofc_final;;02.01.2026;5.999.545.237.992.540;2026-04-01 18h26.58.027871 +0200
;;;;;;;;;;;;;;;;;;;;;;;;;;;;;;;;;;;;;;;;;;;;;;;;;;;;205;B;2026-04-01_18h26.56.490;exp_sofc_final;;02.01.2026;5.999.545.237.992.540;2026-04-01 18h26.58.027871 +0200
