instruction_text,thisN,thisTrialN,thisRepN,prac_attention_resp.keys,prac_attention_resp.rt,prac_attention_resp.duration,exp_atttention_resp.keys,exp_pause_resp.keys,exp_atttention_resp.rt,exp_atttention_resp.duration,exp_pause_resp.rt,exp_pause_resp.duration,instruction_trial.thisRepN,instruction_trial.thisTrialN,instruction_trial.thisN,instruction_trial.thisIndex,practice_trials.thisRepN,practice_trials.thisTrialN,practice_trials.thisN,practice_trials.thisIndex,experiment_trials.thisRepN,experiment_trials.thisTrialN,experiment_trials.thisN,experiment_trials.thisIndex,thisRow.t,notes,piloting,assigned_ls_group,slider_informed_consent.response,Practice_clip_name,Practice_video_used,Practice_audio_used,Practice_modality,Practice_subtitles,Practice_attention_check,Practice_all_cut_rts,practice_trials.prac_attention_resp.keys,Practice_correct_key_required,practice_trials.prac_attention_resp.rt,practice_trials.prac_attention_resp.duration,video_used,audio_used,condition_modality,all_cut_rts,experiment_trials.exp_atttention_resp.keys,experiment_trials.exp_pause_resp.keys,correct_key_required,experiment_trials.exp_atttention_resp.rt,experiment_trials.exp_atttention_resp.duration,experiment_trials.exp_pause_resp.rt,experiment_trials.exp_pause_resp.duration,participant,session,date,expName,expVersion,psychopyVersion,frameRate,expStart,
"Einverständniserklärung

Bitte lesen Sie die folgende Erklärung aufmerksam durch:

Ich bestätige, dass ich über 18 Jahre alt bin und ausreichend Zeit hatte, mich für die Teilnahme zu entscheiden. Ich wurde über die Erhebung, Verarbeitung und öffentliche Zugänglichmachung meiner anonymisierten Daten angemessen informiert.
Ich bin mir bewusst, dass ich das Experiment jederzeit abbrechen kann.

(Drücken Sie die Leertaste, um fortzufahren)",4,4,0,,,,,,,,,,0,4,4,4,,,,,,,,,27.869163800030947,,False,2,ich stimme zu,,,,,,,,,,,,,,,,,,,,,,,206,B,2026-04-02_15h38.01.629,exp_sofc_final,,2026.1.2,60.2674306986764,2026-04-02 15h38.04.386515 +0200,
,,,,,,,,,,,,,,,,,,,,,,,,,,,,,,,,,,,,,,,,,,,,,,,,,,,,206,B,2026-04-02_15h38.01.629,exp_sofc_final,,2026.1.2,60.2674306986764,2026-04-02 15h38.04.386515 +0200,
,0,0,0,None,,,,,,,,,,,,,0,0,0,0,,,,,73.99453529994935,,,,,clip_weißt_18_nosub_1,clips/clip_weißt_18_nosub_1.mp4,audios/silence.mp3,visual,nosub,False,[],None,,,,,,,,,,,,,,,206,B,2026-04-02_15h38.01.629,exp_sofc_final,,2026.1.2,60.2674306986764,2026-04-02 15h38.04.386515 +0200,
,1,0,1,3,9.450548899825662,None,,,,,,,,,,,1,0,1,0,,,,,86.3907746002078,,,,,clip_hund_02_sub_1,clips/clip_hund_02_sub_1.mp4,audios/clip_hund_02_sub_1.mp3,audiovisual,sub,True,[9.326869099866599],3,4,9.450548899825662,None,,,,,,,,,,,,206,B,2026-04-02_15h38.01.629,exp_sofc_final,,2026.1.2,60.2674306986764,2026-04-02 15h38.04.386515 +0200,
,2,0,2,None,,,,,,,,,,,,,2,0,2,0,,,,,106.74772250000387,,,,,clip_weißt_10_nosub_1,clips/clip_weißt_10_nosub_1.mp4,audios/clip_weißt_10_nosub_1.mp3,audiovisual,nosub,False,[5.407465100288391],None,,,,,,,,,,,,,,,206,B,2026-04-02_15h38.01.629,exp_sofc_final,,2026.1.2,60.2674306986764,2026-04-02 15h38.04.386515 +0200,
,3,0,3,None,,,,,,,,,,,,,3,0,3,0,,,,,118.55892300000414,,,,,clip_hund_06_nosub_0,clips/clip_hund_06_nosub_0.mp4,audios/clip_hund_06_nosub_0.mp3,audiovisual,nosub,False,[],None,,,,,,,,,,,,,,,206,B,2026-04-02_15h38.01.629,exp_sofc_final,,2026.1.2,60.2674306986764,2026-04-02 15h38.04.386515 +0200,
,4,0,4,None,,,,,,,,,,,,,4,0,4,0,,,,,130.31938020000234,,,,,clip_wurst_09_sub_1,clips/clip_wurst_09_sub_1.mp4,audios/clip_wurst_09_sub_1.mp3,audiovisual,sub,False,[5.033232399728149],None,,,,,,,,,,,,,,,206,B,2026-04-02_15h38.01.629,exp_sofc_final,,2026.1.2,60.2674306986764,2026-04-02 15h38.04.386515 +0200,
,5,0,5,None,,,,,,,,,,,,,5,0,5,0,,,,,142.47732939990237,,,,,clip_hund_31_sub_0,clips/clip_hund_31_sub_0.mp4,audios/silence.mp3,visual,sub,False,[],None,,,,,,,,,,,,,,,206,B,2026-04-02_15h38.01.629,exp_sofc_final,,2026.1.2,60.2674306986764,2026-04-02 15h38.04.386515 +0200,
,6,0,6,1,6.001290699932724,None,,,,,,,,,,,6,0,6,0,,,,,151.88809859985486,,,,,clip_weißt_21_nosub_0,clips/clip_weißt_21_nosub_0.mp4,audios/silence.mp3,visual,nosub,True,[],1,1,6.001290699932724,None,,,,,,,,,,,,206,B,2026-04-02_15h38.01.629,exp_sofc_final,,2026.1.2,60.2674306986764,2026-04-02 15h38.04.386515 +0200,
,7,0,7,2,4.6889522997662425,None,,,,,,,,,,,7,0,7,0,,,,,169.03232150012627,,,,,clip_hund_28_nosub_0,clips/clip_hund_28_nosub_0.mp4,audios/clip_hund_28_nosub_0.mp3,audiovisual,nosub,True,[],2,2,4.6889522997662425,None,,,,,,,,,,,,206,B,2026-04-02_15h38.01.629,exp_sofc_final,,2026.1.2,60.2674306986764,2026-04-02 15h38.04.386515 +0200,
,8,0,8,2,10.638858600053936,None,,,,,,,,,,,8,0,8,0,,,,,184.45859290007502,,,,,clip_hund_25_sub_1,clips/clip_hund_25_sub_1.mp4,audios/silence.mp3,visual,sub,True,[],2,4,10.638858600053936,None,,,,,,,,,,,,206,B,2026-04-02_15h38.01.629,exp_sofc_final,,2026.1.2,60.2674306986764,2026-04-02 15h38.04.386515 +0200,
,9,0,9,None,,,,,,,,,,,,,9,0,9,0,,,,,204.42888339981437,,,,,clip_hund_26_sub_1,clips/clip_hund_26_sub_1.mp4,audios/silence.mp3,visual,sub,False,[],None,,,,,,,,,,,,,,,206,B,2026-04-02_15h38.01.629,exp_sofc_final,,2026.1.2,60.2674306986764,2026-04-02 15h38.04.386515 +0200,
,10,0,10,None,,,,,,,,,,,,,10,0,10,0,,,,,214.54635359998792,,,,,clip_weißt_09_sub_1,clips/clip_weißt_09_sub_1.mp4,audios/silence.mp3,visual,sub,False,[6.189625199884176],None,,,,,,,,,,,,,,,206,B,2026-04-02_15h38.01.629,exp_sofc_final,,2026.1.2,60.2674306986764,2026-04-02 15h38.04.386515 +0200,
,11,0,11,None,,,,,,,,,,,,,11,0,11,0,,,,,224.57666540006176,,,,,clip_weißt_05_sub_0,clips/clip_weißt_05_sub_0.mp4,audios/clip_weißt_05_sub_0.mp3,audiovisual,sub,False,[],None,,,,,,,,,,,,,,,206,B,2026-04-02_15h38.01.629,exp_sofc_final,,2026.1.2,60.2674306986764,2026-04-02 15h38.04.386515 +0200,
,,,,,,,,,,,,,,,,,,,,,,,,,,,,,,,,,,,,,,,,,,,,,,,,,,,,206,B,2026-04-02_15h38.01.629,exp_sofc_final,,2026.1.2,60.2674306986764,2026-04-02 15h38.04.386515 +0200,
,0,0,0,,,,None,None,,,,,,,,,,,,,0,0,0,0,240.34684519981965,,,,,,,,,,,,,,,,clips/clip_hund_09_sub_2.mp4,audios/silence.mp3,visual,"[5.753361999988556, 11.300706699956208]",None,None,,,,,,206,B,2026-04-02_15h38.01.629,exp_sofc_final,,2026.1.2,60.2674306986764,2026-04-02 15h38.04.386515 +0200,
,1,0,1,,,,None,None,,,,,,,,,,,,,1,0,1,0,252.74933539982885,,,,,,,,,,,,,,,,clips/clip_claude_05_sub_2.mp4,audios/silence.mp3,visual,[4.542658400256187],None,None,,,,,,206,B,2026-04-02_15h38.01.629,exp_sofc_final,,2026.1.2,60.2674306986764,2026-04-02 15h38.04.386515 +0200,
,2,0,2,,,,None,None,,,,,,,,,,,,,2,0,2,0,264.9651096998714,,,,,,,,,,,,,,,,clips/clip_hund_10_sub_0.mp4,audios/clip_hund_10_sub_0.mp3,audiovisual,[9.500810199882835],None,None,,,,,,206,B,2026-04-02_15h38.01.629,exp_sofc_final,,2026.1.2,60.2674306986764,2026-04-02 15h38.04.386515 +0200,
,3,0,3,,,,None,None,,,,,,,,,,,,,3,0,3,0,275.4056330001913,,,,,,,,,,,,,,,,clips/clip_wurst_35_sub_0.mp4,audios/silence.mp3,visual,[],None,None,,,,,,206,B,2026-04-02_15h38.01.629,exp_sofc_final,,2026.1.2,60.2674306986764,2026-04-02 15h38.04.386515 +0200,
,4,0,4,,,,None,None,,,,,,,,,,,,,4,0,4,0,285.5699239000678,,,,,,,,,,,,,,,,clips/clip_claude_11_nosub_0.mp4,audios/silence.mp3,visual,[],None,None,,,,,,206,B,2026-04-02_15h38.01.629,exp_sofc_final,,2026.1.2,60.2674306986764,2026-04-02 15h38.04.386515 +0200,
,5,0,5,,,,None,None,,,,,,,,,,,,,5,0,5,0,296.5533023001626,,,,,,,,,,,,,,,,clips/clip_holo_01_nosub_1.mp4,audios/clip_holo_01_nosub_1.mp3,audiovisual,[],None,None,,,,,,206,B,2026-04-02_15h38.01.629,exp_sofc_final,,2026.1.2,60.2674306986764,2026-04-02 15h38.04.386515 +0200,
,6,0,6,,,,None,None,,,,,,,,,,,,,6,0,6,0,306.6092461999506,,,,,,,,,,,,,,,,clips/clip_wurst_19_sub_0.mp4,audios/silence.mp3,visual,[],None,None,,,,,,206,B,2026-04-02_15h38.01.629,exp_sofc_final,,2026.1.2,60.2674306986764,2026-04-02 15h38.04.386515 +0200,
,7,0,7,,,,3,None,4.192844799719751,None,,,,,,,,,,,7,0,7,0,318.51290589990094,,,,,,,,,,,,,,,,clips/clip_wurst_21_nosub_0.mp4,audios/silence.mp3,visual,[],3,None,3,4.192844799719751,None,,,206,B,2026-04-02_15h38.01.629,exp_sofc_final,,2026.1.2,60.2674306986764,2026-04-02 15h38.04.386515 +0200,
,8,0,8,,,,None,None,,,,,,,,,,,,,8,0,8,0,334.2323977998458,,,,,,,,,,,,,,,,clips/clip_wurst_13_nosub_0.mp4,audios/silence.mp3,visual,[],None,None,,,,,,206,B,2026-04-02_15h38.01.629,exp_sofc_final,,2026.1.2,60.2674306986764,2026-04-02 15h38.04.386515 +0200,
,9,0,9,,,,None,None,,,,,,,,,,,,,9,0,9,0,344.67101459996775,,,,,,,,,,,,,,,,clips/clip_hund_21_sub_1.mp4,audios/silence.mp3,visual,[8.009371999651194],None,None,,,,,,206,B,2026-04-02_15h38.01.629,exp_sofc_final,,2026.1.2,60.2674306986764,2026-04-02 15h38.04.386515 +0200,
,10,0,10,,,,None,None,,,,,,,,,,,,,10,0,10,0,355.6127248001285,,,,,,,,,,,,,,,,clips/clip_claude_01_sub_2.mp4,audios/silence.mp3,visual,"[7.099497199989855, 8.917351599782705]",None,None,,,,,,206,B,2026-04-02_15h38.01.629,exp_sofc_final,,2026.1.2,60.2674306986764,2026-04-02 15h38.04.386515 +0200,
,11,0,11,,,,None,None,,,,,,,,,,,,,11,0,11,0,367.4693343997933,,,,,,,,,,,,,,,,clips/clip_holo_14_sub_0.mp4,audios/silence.mp3,visual,[],None,None,,,,,,206,B,2026-04-02_15h38.01.629,exp_sofc_final,,2026.1.2,60.2674306986764,2026-04-02 15h38.04.386515 +0200,
,12,0,12,,,,None,None,,,,,,,,,,,,,12,0,12,0,378.440796200186,,,,,,,,,,,,,,,,clips/clip_herz_12_sub_0.mp4,audios/clip_herz_12_sub_0.mp3,audiovisual,[6.888304099906236],None,None,,,,,,206,B,2026-04-02_15h38.01.629,exp_sofc_final,,2026.1.2,60.2674306986764,2026-04-02 15h38.04.386515 +0200,
,13,0,13,,,,None,None,,,,,,,,,,,,,13,0,13,0,388.33685349998996,,,,,,,,,,,,,,,,clips/clip_lied_05_nosub_0.mp4,audios/clip_lied_05_nosub_0.mp3,audiovisual,[],None,None,,,,,,206,B,2026-04-02_15h38.01.629,exp_sofc_final,,2026.1.2,60.2674306986764,2026-04-02 15h38.04.386515 +0200,
,14,0,14,,,,None,None,,,,,,,,,,,,,14,0,14,0,398.6070305001922,,,,,,,,,,,,,,,,clips/clip_claude_07_nosub_0.mp4,audios/silence.mp3,visual,[],None,None,,,,,,206,B,2026-04-02_15h38.01.629,exp_sofc_final,,2026.1.2,60.2674306986764,2026-04-02 15h38.04.386515 +0200,
,15,0,15,,,,None,None,,,,,,,,,,,,,15,0,15,0,409.55887180007994,,,,,,,,,,,,,,,,clips/clip_hund_20_nosub_0.mp4,audios/clip_hund_20_nosub_0.mp3,audiovisual,[],None,None,,,,,,206,B,2026-04-02_15h38.01.629,exp_sofc_final,,2026.1.2,60.2674306986764,2026-04-02 15h38.04.386515 +0200,
,16,0,16,,,,1,None,7.343002900015563,None,,,,,,,,,,,16,0,16,0,421.9442802001722,,,,,,,,,,,,,,,,clips/clip_hund_05_sub_0.mp4,audios/clip_hund_05_sub_0.mp3,audiovisual,[4.645763500127941],1,None,3,7.343002900015563,None,,,206,B,2026-04-02_15h38.01.629,exp_sofc_final,,2026.1.2,60.2674306986764,2026-04-02 15h38.04.386515 +0200,
,17,0,17,,,,None,None,,,,,,,,,,,,,17,0,17,0,441.2982847997919,,,,,,,,,,,,,,,,clips/clip_claude_09_sub_2.mp4,audios/silence.mp3,visual,"[3.9902423000894487, 9.065214999951422]",None,None,,,,,,206,B,2026-04-02_15h38.01.629,exp_sofc_final,,2026.1.2,60.2674306986764,2026-04-02 15h38.04.386515 +0200,
,18,0,18,,,,None,None,,,,,,,,,,,,,18,0,18,0,452.41658469988033,,,,,,,,,,,,,,,,clips/clip_hund_29_sub_0.mp4,audios/clip_hund_29_sub_0.mp3,audiovisual,[],None,None,,,,,,206,B,2026-04-02_15h38.01.629,exp_sofc_final,,2026.1.2,60.2674306986764,2026-04-02 15h38.04.386515 +0200,
,19,0,19,,,,None,None,,,,,,,,,,,,,19,0,19,0,464.7471631001681,,,,,,,,,,,,,,,,clips/clip_claude_12_nosub_0.mp4,audios/clip_claude_12_nosub_0.mp3,audiovisual,[],None,None,,,,,,206,B,2026-04-02_15h38.01.629,exp_sofc_final,,2026.1.2,60.2674306986764,2026-04-02 15h38.04.386515 +0200,
,20,0,20,,,,2,None,3.780985400080681,None,,,,,,,,,,,20,0,20,0,474.8416035999544,,,,,,,,,,,,,,,,clips/clip_wurst_10_nosub_2.mp4,audios/clip_wurst_10_nosub_2.mp3,audiovisual,"[4.695945200044662, 7.583326400257647]",2,None,2,3.780985400080681,None,,,206,B,2026-04-02_15h38.01.629,exp_sofc_final,,2026.1.2,60.2674306986764,2026-04-02 15h38.04.386515 +0200,
,21,0,21,,,,None,None,,,,,,,,,,,,,21,0,21,0,488.36278149997815,,,,,,,,,,,,,,,,clips/clip_wurst_22_nosub_0.mp4,audios/clip_wurst_22_nosub_0.mp3,audiovisual,[],None,None,,,,,,206,B,2026-04-02_15h38.01.629,exp_sofc_final,,2026.1.2,60.2674306986764,2026-04-02 15h38.04.386515 +0200,
,22,0,22,,,,None,None,,,,,,,,,,,,,22,0,22,0,500.8392664999701,,,,,,,,,,,,,,,,clips/clip_herz_15_sub_0.mp4,audios/silence.mp3,visual,"[3.794526200275868, 7.8586682002060115]",None,None,,,,,,206,B,2026-04-02_15h38.01.629,exp_sofc_final,,2026.1.2,60.2674306986764,2026-04-02 15h38.04.386515 +0200,
,23,0,23,,,,None,None,,,,,,,,,,,,,23,0,23,0,513.8283259999007,,,,,,,,,,,,,,,,clips/clip_herz_05_nosub_0.mp4,audios/silence.mp3,visual,[5.994167999830097],None,None,,,,,,206,B,2026-04-02_15h38.01.629,exp_sofc_final,,2026.1.2,60.2674306986764,2026-04-02 15h38.04.386515 +0200,
,24,0,24,,,,1,None,4.986185699701309,None,,,,,,,,,,,24,0,24,0,525.0477424999699,,,,,,,,,,,,,,,,clips/clip_claude_14_sub_0.mp4,audios/clip_claude_14_sub_0.mp3,audiovisual,"[3.522144100163132, 8.80293030012399]",1,None,1,4.986185699701309,None,,,206,B,2026-04-02_15h38.01.629,exp_sofc_final,,2026.1.2,60.2674306986764,2026-04-02 15h38.04.386515 +0200,
,25,0,25,,,,None,None,,,,,,,,,,,,,25,0,25,0,542.0686812000349,,,,,,,,,,,,,,,,clips/clip_claude_10_sub_0.mp4,audios/clip_claude_10_sub_0.mp3,audiovisual,[],None,None,,,,,,206,B,2026-04-02_15h38.01.629,exp_sofc_final,,2026.1.2,60.2674306986764,2026-04-02 15h38.04.386515 +0200,
,26,0,26,,,,None,None,,,,,,,,,,,,,26,0,26,0,554.0717263999395,,,,,,,,,,,,,,,,clips/clip_weißt_07_sub_1.mp4,audios/clip_weißt_07_sub_1.mp3,audiovisual,[3.8209502999670804],None,None,,,,,,206,B,2026-04-02_15h38.01.629,exp_sofc_final,,2026.1.2,60.2674306986764,2026-04-02 15h38.04.386515 +0200,
,27,0,27,,,,None,None,,,,,,,,,,,,,27,0,27,0,564.7225448000245,,,,,,,,,,,,,,,,clips/clip_herz_09_nosub_0.mp4,audios/silence.mp3,visual,[],None,None,,,,,,206,B,2026-04-02_15h38.01.629,exp_sofc_final,,2026.1.2,60.2674306986764,2026-04-02 15h38.04.386515 +0200,
,28,0,28,,,,None,None,,,,,,,,,,,,,28,0,28,0,577.1065349001437,,,,,,,,,,,,,,,,clips/clip_weißt_23_sub_1.mp4,audios/clip_weißt_23_sub_1.mp3,audiovisual,[8.54870259994641],None,None,,,,,,206,B,2026-04-02_15h38.01.629,exp_sofc_final,,2026.1.2,60.2674306986764,2026-04-02 15h38.04.386515 +0200,
,29,0,29,,,,None,None,,,,,,,,,,,,,29,0,29,0,589.3022837000899,,,,,,,,,,,,,,,,clips/clip_wurst_25_nosub_1.mp4,audios/silence.mp3,visual,"[8.788842699956149, 8.981899399776012]",None,None,,,,,,206,B,2026-04-02_15h38.01.629,exp_sofc_final,,2026.1.2,60.2674306986764,2026-04-02 15h38.04.386515 +0200,
,30,0,30,,,,2,None,3.732673999853432,None,,,,,,,,,,,30,0,30,0,601.3989809001796,,,,,,,,,,,,,,,,clips/clip_holo_11_sub_2.mp4,audios/clip_holo_11_sub_2.mp3,audiovisual,[5.722251599654555],2,None,2,3.732673999853432,None,,,206,B,2026-04-02_15h38.01.629,exp_sofc_final,,2026.1.2,60.2674306986764,2026-04-02 15h38.04.386515 +0200,
,31,0,31,,,,1,None,2.3291038000024855,None,,,,,,,,,,,31,0,31,0,615.6648368998431,,,,,,,,,,,,,,,,clips/clip_wurst_14_nosub_1.mp4,audios/clip_wurst_14_nosub_1.mp3,audiovisual,[7.6509467996656895],1,None,1,2.3291038000024855,None,,,206,B,2026-04-02_15h38.01.629,exp_sofc_final,,2026.1.2,60.2674306986764,2026-04-02 15h38.04.386515 +0200,
,32,0,32,,,,None,None,,,,,,,,,,,,,32,0,32,0,629.1183345001191,,,,,,,,,,,,,,,,clips/clip_lied_02_sub_2.mp4,audios/silence.mp3,visual,"[4.1273671998642385, 10.174289499875158]",None,None,,,,,,206,B,2026-04-02_15h38.01.629,exp_sofc_final,,2026.1.2,60.2674306986764,2026-04-02 15h38.04.386515 +0200,
,33,0,33,,,,None,None,,,,,,,,,,,,,33,0,33,0,641.5831507998519,,,,,,,,,,,,,,,,clips/clip_wurst_23_sub_2.mp4,audios/silence.mp3,visual,"[4.594842699822038, 7.822295600082725]",None,None,,,,,,206,B,2026-04-02_15h38.01.629,exp_sofc_final,,2026.1.2,60.2674306986764,2026-04-02 15h38.04.386515 +0200,
,34,0,34,,,,None,None,,,,,,,,,,,,,34,0,34,0,652.7952811000869,,,,,,,,,,,,,,,,clips/clip_weißt_08_nosub_0.mp4,audios/silence.mp3,visual,[8.078499000053853],None,None,,,,,,206,B,2026-04-02_15h38.01.629,exp_sofc_final,,2026.1.2,60.2674306986764,2026-04-02 15h38.04.386515 +0200,
,35,0,35,,,,None,None,,,,,,,,,,,,,35,0,35,0,663.9214233001694,,,,,,,,,,,,,,,,clips/clip_holo_13_nosub_1.mp4,audios/clip_holo_13_nosub_1.mp3,audiovisual,[5.822680300101638],None,None,,,,,,206,B,2026-04-02_15h38.01.629,exp_sofc_final,,2026.1.2,60.2674306986764,2026-04-02 15h38.04.386515 +0200,
,36,0,36,,,,None,None,,,,,,,,,,,,,36,0,36,0,676.6088328999467,,,,,,,,,,,,,,,,clips/clip_lied_11_sub_1.mp4,audios/clip_lied_11_sub_1.mp3,audiovisual,[8.0327580999583],None,None,,,,,,206,B,2026-04-02_15h38.01.629,exp_sofc_final,,2026.1.2,60.2674306986764,2026-04-02 15h38.04.386515 +0200,
,37,0,37,,,,None,None,,,,,,,,,,,,,37,0,37,0,688.4538547000848,,,,,,,,,,,,,,,,clips/clip_holo_12_nosub_1.mp4,audios/silence.mp3,visual,[8.798950999975204],None,None,,,,,,206,B,2026-04-02_15h38.01.629,exp_sofc_final,,2026.1.2,60.2674306986764,2026-04-02 15h38.04.386515 +0200,
,38,0,38,,,,None,None,,,,,,,,,,,,,38,0,38,0,699.3067843001336,,,,,,,,,,,,,,,,clips/clip_claude_15_nosub_0.mp4,audios/silence.mp3,visual,[],None,None,,,,,,206,B,2026-04-02_15h38.01.629,exp_sofc_final,,2026.1.2,60.2674306986764,2026-04-02 15h38.04.386515 +0200,
,39,0,39,,,,None,None,,,,,,,,,,,,,39,0,39,0,712.258902200032,,,,,,,,,,,,,,,,clips/clip_wurst_16_sub_0.mp4,audios/clip_wurst_16_sub_0.mp3,audiovisual,[],None,None,,,,,,206,B,2026-04-02_15h38.01.629,exp_sofc_final,,2026.1.2,60.2674306986764,2026-04-02 15h38.04.386515 +0200,
,40,0,40,,,,None,None,,,,,,,,,,,,,40,0,40,0,723.2603273000568,,,,,,,,,,,,,,,,clips/clip_herz_14_nosub_0.mp4,audios/clip_herz_14_nosub_0.mp3,audiovisual,[],None,None,,,,,,206,B,2026-04-02_15h38.01.629,exp_sofc_final,,2026.1.2,60.2674306986764,2026-04-02 15h38.04.386515 +0200,
,41,0,41,,,,None,None,,,,,,,,,,,,,41,0,41,0,734.5272528999485,,,,,,,,,,,,,,,,clips/clip_holo_17_nosub_0.mp4,audios/clip_holo_17_nosub_0.mp3,audiovisual,[],None,None,,,,,,206,B,2026-04-02_15h38.01.629,exp_sofc_final,,2026.1.2,60.2674306986764,2026-04-02 15h38.04.386515 +0200,
,42,0,42,,,,None,None,,,,,,,,,,,,,42,0,42,0,745.2196236001328,,,,,,,,,,,,,,,,clips/clip_hund_24_nosub_1.mp4,audios/clip_hund_24_nosub_1.mp3,audiovisual,[8.064420999959111],None,None,,,,,,206,B,2026-04-02_15h38.01.629,exp_sofc_final,,2026.1.2,60.2674306986764,2026-04-02 15h38.04.386515 +0200,
,43,0,43,,,,None,None,,,,,,,,,,,,,43,0,43,0,758.1563830999658,,,,,,,,,,,,,,,,clips/clip_lied_16_sub_2.mp4,audios/clip_lied_16_sub_2.mp3,audiovisual,[5.481439800001681],None,None,,,,,,206,B,2026-04-02_15h38.01.629,exp_sofc_final,,2026.1.2,60.2674306986764,2026-04-02 15h38.04.386515 +0200,
,44,0,44,,,,1,None,4.536687500309199,None,,,,,,,,,,,44,0,44,0,769.5014423998073,,,,,,,,,,,,,,,,clips/clip_hund_17_sub_1.mp4,audios/silence.mp3,visual,[12.70920450007543],1,None,2,4.536687500309199,None,,,206,B,2026-04-02_15h38.01.629,exp_sofc_final,,2026.1.2,60.2674306986764,2026-04-02 15h38.04.386515 +0200,
,45,0,45,,,,None,None,,,,,,,,,,,,,45,0,45,0,787.3770408001728,,,,,,,,,,,,,,,,clips/clip_claude_27_nosub_0.mp4,audios/silence.mp3,visual,[],None,None,,,,,,206,B,2026-04-02_15h38.01.629,exp_sofc_final,,2026.1.2,60.2674306986764,2026-04-02 15h38.04.386515 +0200,
,46,0,46,,,,None,None,,,,,,,,,,,,,46,0,46,0,800.2104294002056,,,,,,,,,,,,,,,,clips/clip_hund_27_sub_1.mp4,audios/silence.mp3,visual,[4.663543799892068],None,None,,,,,,206,B,2026-04-02_15h38.01.629,exp_sofc_final,,2026.1.2,60.2674306986764,2026-04-02 15h38.04.386515 +0200,
,47,0,47,,,,4,None,3.9816796998493373,None,,,,,,,,,,,47,0,47,0,811.3748260000721,,,,,,,,,,,,,,,,clips/clip_hund_14_sub_2.mp4,audios/clip_hund_14_sub_2.mp3,audiovisual,[5.767801599577069],4,None,4,3.9816796998493373,None,,,206,B,2026-04-02_15h38.01.629,exp_sofc_final,,2026.1.2,60.2674306986764,2026-04-02 15h38.04.386515 +0200,
,48,0,48,,,,None,None,,,,,,,,,,,,,48,0,48,0,826.2390217999928,,,,,,,,,,,,,,,,clips/clip_lied_12_nosub_0.mp4,audios/silence.mp3,visual,[],None,None,,,,,,206,B,2026-04-02_15h38.01.629,exp_sofc_final,,2026.1.2,60.2674306986764,2026-04-02 15h38.04.386515 +0200,
,49,0,49,,,,None,None,,,,,,,,,,,,,49,0,49,0,836.0065923999064,,,,,,,,,,,,,,,,clips/clip_holo_18_sub_0.mp4,audios/silence.mp3,visual,[6.568677899893373],None,None,,,,,,206,B,2026-04-02_15h38.01.629,exp_sofc_final,,2026.1.2,60.2674306986764,2026-04-02 15h38.04.386515 +0200,
,50,0,50,,,,None,None,,,,,,,,,,,,,50,0,50,0,848.7614989001304,,,,,,,,,,,,,,,,clips/clip_claude_18_sub_0.mp4,audios/clip_claude_18_sub_0.mp3,audiovisual,[],None,None,,,,,,206,B,2026-04-02_15h38.01.629,exp_sofc_final,,2026.1.2,60.2674306986764,2026-04-02 15h38.04.386515 +0200,
,51,0,51,,,,None,None,,,,,,,,,,,,,51,0,51,0,858.6807853998616,,,,,,,,,,,,,,,,clips/clip_holo_15_sub_0.mp4,audios/clip_holo_15_sub_0.mp3,audiovisual,[],None,None,,,,,,206,B,2026-04-02_15h38.01.629,exp_sofc_final,,2026.1.2,60.2674306986764,2026-04-02 15h38.04.386515 +0200,
,52,0,52,,,,None,None,,,,,,,,,,,,,52,0,52,0,868.7949234000407,,,,,,,,,,,,,,,,clips/clip_wurst_29_nosub_1.mp4,audios/silence.mp3,visual,[],None,None,,,,,,206,B,2026-04-02_15h38.01.629,exp_sofc_final,,2026.1.2,60.2674306986764,2026-04-02 15h38.04.386515 +0200,
,53,0,53,,,,None,None,,,,,,,,,,,,,53,0,53,0,881.6624328000471,,,,,,,,,,,,,,,,clips/clip_weißt_02_sub_0.mp4,audios/clip_weißt_02_sub_0.mp3,audiovisual,[],None,None,,,,,,206,B,2026-04-02_15h38.01.629,exp_sofc_final,,2026.1.2,60.2674306986764,2026-04-02 15h38.04.386515 +0200,
,54,0,54,,,,None,None,,,,,,,,,,,,,54,0,54,0,892.5515772998333,,,,,,,,,,,,,,,,clips/clip_holo_03_sub_1.mp4,audios/clip_holo_03_sub_1.mp3,audiovisual,[9.068768800236285],None,None,,,,,,206,B,2026-04-02_15h38.01.629,exp_sofc_final,,2026.1.2,60.2674306986764,2026-04-02 15h38.04.386515 +0200,
,55,0,55,,,,4,None,4.903454499784857,None,,,,,,,,,,,55,0,55,0,904.1978337997571,,,,,,,,,,,,,,,,clips/clip_holo_16_nosub_1.mp4,audios/silence.mp3,visual,"[10.235295900143683, 12.725413700100034]",4,None,4,4.903454499784857,None,,,206,B,2026-04-02_15h38.01.629,exp_sofc_final,,2026.1.2,60.2674306986764,2026-04-02 15h38.04.386515 +0200,
,56,0,56,,,,4,None,3.320696400012821,None,,,,,,,,,,,56,0,56,0,922.0327598000877,,,,,,,,,,,,,,,,clips/clip_wurst_08_nosub_1.mp4,audios/silence.mp3,visual,[5.4680090001784265],4,None,4,3.320696400012821,None,,,206,B,2026-04-02_15h38.01.629,exp_sofc_final,,2026.1.2,60.2674306986764,2026-04-02 15h38.04.386515 +0200,
,57,0,57,,,,None,None,,,,,,,,,,,,,57,0,57,0,934.7790008997545,,,,,,,,,,,,,,,,clips/clip_wurst_28_sub_1.mp4,audios/clip_wurst_28_sub_1.mp3,audiovisual,[],None,None,,,,,,206,B,2026-04-02_15h38.01.629,exp_sofc_final,,2026.1.2,60.2674306986764,2026-04-02 15h38.04.386515 +0200,
,58,0,58,,,,None,None,,,,,,,,,,,,,58,0,58,0,945.9780639000237,,,,,,,,,,,,,,,,clips/clip_herz_04_sub_0.mp4,audios/clip_herz_04_sub_0.mp3,audiovisual,[8.031991499941796],None,None,,,,,,206,B,2026-04-02_15h38.01.629,exp_sofc_final,,2026.1.2,60.2674306986764,2026-04-02 15h38.04.386515 +0200,
,59,0,59,,,,None,space,,,48.19261460006237,None,,,,,,,,,59,0,59,0,957.8645780999213,,,,,,,,,,,,,,,,clips/clip_hund_36_nosub_2.mp4,audios/silence.mp3,visual,"[2.647233299911022, 5.7771422998048365]",None,space,,,,48.19261460006237,None,206,B,2026-04-02_15h38.01.629,exp_sofc_final,,2026.1.2,60.2674306986764,2026-04-02 15h38.04.386515 +0200,
,60,0,60,,,,1,None,5.6522609000094235,None,,,,,,,,,,,60,0,60,0,1016.2012054999359,,,,,,,,,,,,,,,,clips/clip_wurst_32_sub_1.mp4,audios/clip_wurst_32_sub_1.mp3,audiovisual,[7.295738400425762],1,None,1,5.6522609000094235,None,,,206,B,2026-04-02_15h38.01.629,exp_sofc_final,,2026.1.2,60.2674306986764,2026-04-02 15h38.04.386515 +0200,
,61,0,61,,,,None,None,,,,,,,,,,,,,61,0,61,0,1033.457243300043,,,,,,,,,,,,,,,,clips/clip_dampf_01_sub_0.mp4,audios/silence.mp3,visual,[],None,None,,,,,,206,B,2026-04-02_15h38.01.629,exp_sofc_final,,2026.1.2,60.2674306986764,2026-04-02 15h38.04.386515 +0200,
,62,0,62,,,,None,None,,,,,,,,,,,,,62,0,62,0,1043.686388200149,,,,,,,,,,,,,,,,clips/clip_lied_15_sub_2.mp4,audios/silence.mp3,visual,"[3.1889702999033034, 7.172929100226611]",None,None,,,,,,206,B,2026-04-02_15h38.01.629,exp_sofc_final,,2026.1.2,60.2674306986764,2026-04-02 15h38.04.386515 +0200,
,63,0,63,,,,None,None,,,,,,,,,,,,,63,0,63,0,1051.9203329999,,,,,,,,,,,,,,,,clips/clip_weißt_14_nosub_2.mp4,audios/silence.mp3,visual,[8.187756400089711],None,None,,,,,,206,B,2026-04-02_15h38.01.629,exp_sofc_final,,2026.1.2,60.2674306986764,2026-04-02 15h38.04.386515 +0200,
,64,0,64,,,,None,None,,,,,,,,,,,,,64,0,64,0,1061.84043940017,,,,,,,,,,,,,,,,clips/clip_claude_06_sub_1.mp4,audios/clip_claude_06_sub_1.mp3,audiovisual,[4.028958899900317],None,None,,,,,,206,B,2026-04-02_15h38.01.629,exp_sofc_final,,2026.1.2,60.2674306986764,2026-04-02 15h38.04.386515 +0200,
,65,0,65,,,,None,None,,,,,,,,,,,,,65,0,65,0,1075.2288929000497,,,,,,,,,,,,,,,,clips/clip_weißt_11_nosub_0.mp4,audios/clip_weißt_11_nosub_0.mp3,audiovisual,[],None,None,,,,,,206,B,2026-04-02_15h38.01.629,exp_sofc_final,,2026.1.2,60.2674306986764,2026-04-02 15h38.04.386515 +0200,
,66,0,66,,,,None,None,,,,,,,,,,,,,66,0,66,0,1086.1212248997763,,,,,,,,,,,,,,,,clips/clip_lied_06_sub_1.mp4,audios/silence.mp3,visual,[],None,None,,,,,,206,B,2026-04-02_15h38.01.629,exp_sofc_final,,2026.1.2,60.2674306986764,2026-04-02 15h38.04.386515 +0200,
,67,0,67,,,,1,None,3.038025800138712,None,,,,,,,,,,,67,0,67,0,1099.6594925997779,,,,,,,,,,,,,,,,clips/clip_lied_20_sub_2.mp4,audios/clip_lied_20_sub_2.mp3,audiovisual,"[5.277997899800539, 11.30319119989872]",1,None,1,3.038025800138712,None,,,206,B,2026-04-02_15h38.01.629,exp_sofc_final,,2026.1.2,60.2674306986764,2026-04-02 15h38.04.386515 +0200,
,68,0,68,,,,None,None,,,,,,,,,,,,,68,0,68,0,1114.2287158002146,,,,,,,,,,,,,,,,clips/clip_lied_10_sub_1.mp4,audios/silence.mp3,visual,[10.259099399670959],None,None,,,,,,206,B,2026-04-02_15h38.01.629,exp_sofc_final,,2026.1.2,60.2674306986764,2026-04-02 15h38.04.386515 +0200,
,69,0,69,,,,None,None,,,,,,,,,,,,,69,0,69,0,1126.6781906997785,,,,,,,,,,,,,,,,clips/clip_claude_20_nosub_1.mp4,audios/clip_claude_20_nosub_1.mp3,audiovisual,[6.615080900024623],None,None,,,,,,206,B,2026-04-02_15h38.01.629,exp_sofc_final,,2026.1.2,60.2674306986764,2026-04-02 15h38.04.386515 +0200,
,70,0,70,,,,None,None,,,,,,,,,,,,,70,0,70,0,1139.5412396998145,,,,,,,,,,,,,,,,clips/clip_hund_18_sub_1.mp4,audios/clip_hund_18_sub_1.mp3,audiovisual,[7.116819000337273],None,None,,,,,,206,B,2026-04-02_15h38.01.629,exp_sofc_final,,2026.1.2,60.2674306986764,2026-04-02 15h38.04.386515 +0200,
,71,0,71,,,,1,None,3.7191694998182356,None,,,,,,,,,,,71,0,71,0,1150.4583665998653,,,,,,,,,,,,,,,,clips/clip_hund_12_nosub_1.mp4,audios/clip_hund_12_nosub_1.mp3,audiovisual,[9.834460000041872],1,None,2,3.7191694998182356,None,,,206,B,2026-04-02_15h38.01.629,exp_sofc_final,,2026.1.2,60.2674306986764,2026-04-02 15h38.04.386515 +0200,
,72,0,72,,,,None,None,,,,,,,,,,,,,72,0,72,0,1166.3864315999672,,,,,,,,,,,,,,,,clips/clip_claude_17_sub_1.mp4,audios/silence.mp3,visual,[10.3454225002788],None,None,,,,,,206,B,2026-04-02_15h38.01.629,exp_sofc_final,,2026.1.2,60.2674306986764,2026-04-02 15h38.04.386515 +0200,
,73,0,73,,,,None,None,,,,,,,,,,,,,73,0,73,0,1178.6533967000432,,,,,,,,,,,,,,,,clips/clip_wurst_26_nosub_1.mp4,audios/clip_wurst_26_nosub_1.mp3,audiovisual,[10.097084499895573],None,None,,,,,,206,B,2026-04-02_15h38.01.629,exp_sofc_final,,2026.1.2,60.2674306986764,2026-04-02 15h38.04.386515 +0200,
,74,0,74,,,,None,None,,,,,,,,,,,,,74,0,74,0,1191.4459331999533,,,,,,,,,,,,,,,,clips/clip_herz_01_nosub_1.mp4,audios/silence.mp3,visual,[6.522154100239277],None,None,,,,,,206,B,2026-04-02_15h38.01.629,exp_sofc_final,,2026.1.2,60.2674306986764,2026-04-02 15h38.04.386515 +0200,
,75,0,75,,,,None,None,,,,,,,,,,,,,75,0,75,0,1202.92146089999,,,,,,,,,,,,,,,,clips/clip_herz_02_nosub_0.mp4,audios/clip_herz_02_nosub_0.mp3,audiovisual,[9.161866799928248],None,None,,,,,,206,B,2026-04-02_15h38.01.629,exp_sofc_final,,2026.1.2,60.2674306986764,2026-04-02 15h38.04.386515 +0200,
,76,0,76,,,,None,None,,,,,,,,,,,,,76,0,76,0,1216.149439100176,,,,,,,,,,,,,,,,clips/clip_holo_04_nosub_2.mp4,audios/silence.mp3,visual,"[3.29064860008657, 7.14412930002436]",None,None,,,,,,206,B,2026-04-02_15h38.01.629,exp_sofc_final,,2026.1.2,60.2674306986764,2026-04-02 15h38.04.386515 +0200,
,77,0,77,,,,2,None,3.1383940000087023,None,,,,,,,,,,,77,0,77,0,1229.575494799763,,,,,,,,,,,,,,,,clips/clip_wurst_03_sub_1.mp4,audios/clip_wurst_03_sub_1.mp3,audiovisual,[4.809821399860084],2,None,2,3.1383940000087023,None,,,206,B,2026-04-02_15h38.01.629,exp_sofc_final,,2026.1.2,60.2674306986764,2026-04-02 15h38.04.386515 +0200,
,78,0,78,,,,None,None,,,,,,,,,,,,,78,0,78,0,1245.4937162999995,,,,,,,,,,,,,,,,clips/clip_weißt_29_nosub_1.mp4,audios/silence.mp3,visual,[6.841636399738491],None,None,,,,,,206,B,2026-04-02_15h38.01.629,exp_sofc_final,,2026.1.2,60.2674306986764,2026-04-02 15h38.04.386515 +0200,
,79,0,79,,,,None,None,,,,,,,,,,,,,79,0,79,0,1257.937019799836,,,,,,,,,,,,,,,,clips/clip_lied_18_nosub_2.mp4,audios/clip_lied_18_nosub_2.mp3,audiovisual,"[5.753828799817711, 7.921246299985796]",None,None,,,,,,206,B,2026-04-02_15h38.01.629,exp_sofc_final,,2026.1.2,60.2674306986764,2026-04-02 15h38.04.386515 +0200,
,80,0,80,,,,None,None,,,,,,,,,,,,,80,0,80,0,1270.4200945999473,,,,,,,,,,,,,,,,clips/clip_weißt_04_nosub_0.mp4,audios/clip_weißt_04_nosub_0.mp3,audiovisual,[9.922808600123972],None,None,,,,,,206,B,2026-04-02_15h38.01.629,exp_sofc_final,,2026.1.2,60.2674306986764,2026-04-02 15h38.04.386515 +0200,
,81,0,81,,,,None,None,,,,,,,,,,,,,81,0,81,0,1281.322114800103,,,,,,,,,,,,,,,,clips/clip_hund_08_nosub_1.mp4,audios/clip_hund_08_nosub_1.mp3,audiovisual,[],None,None,,,,,,206,B,2026-04-02_15h38.01.629,exp_sofc_final,,2026.1.2,60.2674306986764,2026-04-02 15h38.04.386515 +0200,
,82,0,82,,,,None,None,,,,,,,,,,,,,82,0,82,0,1292.2535072001629,,,,,,,,,,,,,,,,clips/clip_dampf_02_sub_1.mp4,audios/clip_dampf_02_sub_1.mp3,audiovisual,[4.908111399970949],None,None,,,,,,206,B,2026-04-02_15h38.01.629,exp_sofc_final,,2026.1.2,60.2674306986764,2026-04-02 15h38.04.386515 +0200,
,83,0,83,,,,None,None,,,,,,,,,,,,,83,0,83,0,1302.397684100084,,,,,,,,,,,,,,,,clips/clip_weißt_13_sub_0.mp4,audios/clip_weißt_13_sub_0.mp3,audiovisual,[],None,None,,,,,,206,B,2026-04-02_15h38.01.629,exp_sofc_final,,2026.1.2,60.2674306986764,2026-04-02 15h38.04.386515 +0200,
,84,0,84,,,,None,None,,,,,,,,,,,,,84,0,84,0,1314.1558471000753,,,,,,,,,,,,,,,,clips/clip_weißt_16_sub_0.mp4,audios/silence.mp3,visual,[],None,None,,,,,,206,B,2026-04-02_15h38.01.629,exp_sofc_final,,2026.1.2,60.2674306986764,2026-04-02 15h38.04.386515 +0200,
,85,0,85,,,,None,None,,,,,,,,,,,,,85,0,85,0,1325.6437055999413,,,,,,,,,,,,,,,,clips/clip_claude_29_nosub_0.mp4,audios/clip_claude_29_nosub_0.mp3,audiovisual,[],None,None,,,,,,206,B,2026-04-02_15h38.01.629,exp_sofc_final,,2026.1.2,60.2674306986764,2026-04-02 15h38.04.386515 +0200,
,86,0,86,,,,None,None,,,,,,,,,,,,,86,0,86,0,1336.5184808000922,,,,,,,,,,,,,,,,clips/clip_lied_03_sub_1.mp4,audios/clip_lied_03_sub_1.mp3,audiovisual,[4.70562809985131],None,None,,,,,,206,B,2026-04-02_15h38.01.629,exp_sofc_final,,2026.1.2,60.2674306986764,2026-04-02 15h38.04.386515 +0200,
,87,0,87,,,,None,None,,,,,,,,,,,,,87,0,87,0,1347.8554471000098,,,,,,,,,,,,,,,,clips/clip_wurst_30_nosub_1.mp4,audios/clip_wurst_30_nosub_1.mp3,audiovisual,[],None,None,,,,,,206,B,2026-04-02_15h38.01.629,exp_sofc_final,,2026.1.2,60.2674306986764,2026-04-02 15h38.04.386515 +0200,
,88,0,88,,,,2,None,3.9814669000916183,None,,,,,,,,,,,88,0,88,0,1358.8056582999416,,,,,,,,,,,,,,,,clips/clip_claude_22_sub_2.mp4,audios/clip_claude_22_sub_2.mp3,audiovisual,[9.796378399711102],2,None,2,3.9814669000916183,None,,,206,B,2026-04-02_15h38.01.629,exp_sofc_final,,2026.1.2,60.2674306986764,2026-04-02 15h38.04.386515 +0200,
,89,0,89,,,,None,None,,,,,,,,,,,,,89,0,89,0,1374.4569537998177,,,,,,,,,,,,,,,,clips/clip_lied_21_nosub_2.mp4,audios/silence.mp3,visual,[7.144946999847889],None,None,,,,,,206,B,2026-04-02_15h38.01.629,exp_sofc_final,,2026.1.2,60.2674306986764,2026-04-02 15h38.04.386515 +0200,
,90,0,90,,,,None,None,,,,,,,,,,,,,90,0,90,0,1386.8224061001092,,,,,,,,,,,,,,,,clips/clip_hund_32_nosub_1.mp4,audios/clip_hund_32_nosub_1.mp3,audiovisual,[],None,None,,,,,,206,B,2026-04-02_15h38.01.629,exp_sofc_final,,2026.1.2,60.2674306986764,2026-04-02 15h38.04.386515 +0200,
,91,0,91,,,,None,None,,,,,,,,,,,,,91,0,91,0,1397.6603860999458,,,,,,,,,,,,,,,,clips/clip_holo_26_nosub_2.mp4,audios/clip_holo_26_nosub_2.mp3,audiovisual,"[6.096467599738389, 8.30918509978801]",None,None,,,,,,206,B,2026-04-02_15h38.01.629,exp_sofc_final,,2026.1.2,60.2674306986764,2026-04-02 15h38.04.386515 +0200,
,92,0,92,,,,None,None,,,,,,,,,,,,,92,0,92,0,1407.718115199823,,,,,,,,,,,,,,,,clips/clip_dampf_06_sub_2.mp4,audios/clip_dampf_06_sub_2.mp3,audiovisual,[],None,None,,,,,,206,B,2026-04-02_15h38.01.629,exp_sofc_final,,2026.1.2,60.2674306986764,2026-04-02 15h38.04.386515 +0200,
,93,0,93,,,,None,None,,,,,,,,,,,,,93,0,93,0,1417.581520800013,,,,,,,,,,,,,,,,clips/clip_wurst_34_nosub_2.mp4,audios/clip_wurst_34_nosub_2.mp3,audiovisual,"[4.099338500294834, 7.501470800023526]",None,None,,,,,,206,B,2026-04-02_15h38.01.629,exp_sofc_final,,2026.1.2,60.2674306986764,2026-04-02 15h38.04.386515 +0200,
,94,0,94,,,,None,None,,,,,,,,,,,,,94,0,94,0,1426.9387774998322,,,,,,,,,,,,,,,,clips/clip_claude_23_nosub_0.mp4,audios/silence.mp3,visual,[],None,None,,,,,,206,B,2026-04-02_15h38.01.629,exp_sofc_final,,2026.1.2,60.2674306986764,2026-04-02 15h38.04.386515 +0200,
,95,0,95,,,,None,None,,,,,,,,,,,,,95,0,95,0,1439.959472999908,,,,,,,,,,,,,,,,clips/clip_herz_10_nosub_0.mp4,audios/clip_herz_10_nosub_0.mp3,audiovisual,[],None,None,,,,,,206,B,2026-04-02_15h38.01.629,exp_sofc_final,,2026.1.2,60.2674306986764,2026-04-02 15h38.04.386515 +0200,
,96,0,96,,,,None,None,,,,,,,,,,,,,96,0,96,0,1450.8670673999004,,,,,,,,,,,,,,,,clips/clip_claude_13_sub_0.mp4,audios/silence.mp3,visual,[],None,None,,,,,,206,B,2026-04-02_15h38.01.629,exp_sofc_final,,2026.1.2,60.2674306986764,2026-04-02 15h38.04.386515 +0200,
,97,0,97,,,,1,None,2.1540083000436425,None,,,,,,,,,,,97,0,97,0,1461.0077836997807,,,,,,,,,,,,,,,,clips/clip_herz_16_sub_0.mp4,audios/clip_herz_16_sub_0.mp3,audiovisual,[],1,None,1,2.1540083000436425,None,,,206,B,2026-04-02_15h38.01.629,exp_sofc_final,,2026.1.2,60.2674306986764,2026-04-02 15h38.04.386515 +0200,
,98,0,98,,,,2,None,5.5980576002039015,None,,,,,,,,,,,98,0,98,0,1473.0302916998044,,,,,,,,,,,,,,,,clips/clip_dampf_05_sub_2.mp4,audios/silence.mp3,visual,"[3.7915919995866716, 3.8891845997422934, 9.002897299826145]",2,None,4,5.5980576002039015,None,,,206,B,2026-04-02_15h38.01.629,exp_sofc_final,,2026.1.2,60.2674306986764,2026-04-02 15h38.04.386515 +0200,
,99,0,99,,,,None,None,,,,,,,,,,,,,99,0,99,0,1488.262074999977,,,,,,,,,,,,,,,,clips/clip_holo_19_sub_1.mp4,audios/clip_holo_19_sub_1.mp3,audiovisual,[6.498696899972856],None,None,,,,,,206,B,2026-04-02_15h38.01.629,exp_sofc_final,,2026.1.2,60.2674306986764,2026-04-02 15h38.04.386515 +0200,
,100,0,100,,,,None,None,,,,,,,,,,,,,100,0,100,0,1499.1109540998004,,,,,,,,,,,,,,,,clips/clip_hund_03_nosub_1.mp4,audios/clip_hund_03_nosub_1.mp3,audiovisual,[6.560519999824464],None,None,,,,,,206,B,2026-04-02_15h38.01.629,exp_sofc_final,,2026.1.2,60.2674306986764,2026-04-02 15h38.04.386515 +0200,
,101,0,101,,,,None,None,,,,,,,,,,,,,101,0,101,0,1511.8977045998909,,,,,,,,,,,,,,,,clips/clip_claude_03_nosub_1.mp4,audios/silence.mp3,visual,[5.096923999954015],None,None,,,,,,206,B,2026-04-02_15h38.01.629,exp_sofc_final,,2026.1.2,60.2674306986764,2026-04-02 15h38.04.386515 +0200,
,102,0,102,,,,None,None,,,,,,,,,,,,,102,0,102,0,1524.3691544001922,,,,,,,,,,,,,,,,clips/clip_holo_09_nosub_2.mp4,audios/clip_holo_09_nosub_2.mp3,audiovisual,[],None,None,,,,,,206,B,2026-04-02_15h38.01.629,exp_sofc_final,,2026.1.2,60.2674306986764,2026-04-02 15h38.04.386515 +0200,
,103,0,103,,,,None,None,,,,,,,,,,,,,103,0,103,0,1536.5225631999783,,,,,,,,,,,,,,,,clips/clip_weißt_22_sub_0.mp4,audios/silence.mp3,visual,[],None,None,,,,,,206,B,2026-04-02_15h38.01.629,exp_sofc_final,,2026.1.2,60.2674306986764,2026-04-02 15h38.04.386515 +0200,
,104,0,104,,,,None,None,,,,,,,,,,,,,104,0,104,0,1548.437730600126,,,,,,,,,,,,,,,,clips/clip_hund_11_nosub_1.mp4,audios/silence.mp3,visual,"[0.5649899002164602, 8.313566600438207]",None,None,,,,,,206,B,2026-04-02_15h38.01.629,exp_sofc_final,,2026.1.2,60.2674306986764,2026-04-02 15h38.04.386515 +0200,
,105,0,105,,,,None,None,,,,,,,,,,,,,105,0,105,0,1558.9909414998256,,,,,,,,,,,,,,,,clips/clip_weißt_25_nosub_1.mp4,audios/silence.mp3,visual,[5.405294499825686],None,None,,,,,,206,B,2026-04-02_15h38.01.629,exp_sofc_final,,2026.1.2,60.2674306986764,2026-04-02 15h38.04.386515 +0200,
,106,0,106,,,,3,None,5.6460090996697545,None,,,,,,,,,,,106,0,106,0,1571.8624113998376,,,,,,,,,,,,,,,,clips/clip_holo_22_sub_1.mp4,audios/silence.mp3,visual,[9.394381099846214],3,None,3,5.6460090996697545,None,,,206,B,2026-04-02_15h38.01.629,exp_sofc_final,,2026.1.2,60.2674306986764,2026-04-02 15h38.04.386515 +0200,
,107,0,107,,,,None,None,,,,,,,,,,,,,107,0,107,0,1587.7502847001888,,,,,,,,,,,,,,,,clips/clip_claude_02_sub_1.mp4,audios/clip_claude_02_sub_1.mp3,audiovisual,[5.80318700009957],None,None,,,,,,206,B,2026-04-02_15h38.01.629,exp_sofc_final,,2026.1.2,60.2674306986764,2026-04-02 15h38.04.386515 +0200,
,108,0,108,,,,None,None,,,,,,,,,,,,,108,0,108,0,1598.2117273001932,,,,,,,,,,,,,,,,clips/clip_wurst_31_sub_1.mp4,audios/silence.mp3,visual,[],None,None,,,,,,206,B,2026-04-02_15h38.01.629,exp_sofc_final,,2026.1.2,60.2674306986764,2026-04-02 15h38.04.386515 +0200,
,109,0,109,,,,None,None,,,,,,,,,,,,,109,0,109,0,1610.1412372998893,,,,,,,,,,,,,,,,clips/clip_hund_15_nosub_1.mp4,audios/silence.mp3,visual,[4.838276000227779],None,None,,,,,,206,B,2026-04-02_15h38.01.629,exp_sofc_final,,2026.1.2,60.2674306986764,2026-04-02 15h38.04.386515 +0200,
,110,0,110,,,,None,None,,,,,,,,,,,,,110,0,110,0,1621.375191600062,,,,,,,,,,,,,,,,clips/clip_hund_01_nosub_0.mp4,audios/silence.mp3,visual,[],None,None,,,,,,206,B,2026-04-02_15h38.01.629,exp_sofc_final,,2026.1.2,60.2674306986764,2026-04-02 15h38.04.386515 +0200,
,111,0,111,,,,None,None,,,,,,,,,,,,,111,0,111,0,1633.0960572999902,,,,,,,,,,,,,,,,clips/clip_hund_16_nosub_1.mp4,audios/clip_hund_16_nosub_1.mp3,audiovisual,[],None,None,,,,,,206,B,2026-04-02_15h38.01.629,exp_sofc_final,,2026.1.2,60.2674306986764,2026-04-02 15h38.04.386515 +0200,
,112,0,112,,,,None,None,,,,,,,,,,,,,112,0,112,0,1644.780833200086,,,,,,,,,,,,,,,,clips/clip_hund_34_sub_1.mp4,audios/silence.mp3,visual,[],None,None,,,,,,206,B,2026-04-02_15h38.01.629,exp_sofc_final,,2026.1.2,60.2674306986764,2026-04-02 15h38.04.386515 +0200,
,113,0,113,,,,1,None,3.6169940000399947,None,,,,,,,,,,,113,0,113,0,1656.119632099755,,,,,,,,,,,,,,,,clips/clip_weißt_15_nosub_1.mp4,audios/clip_weißt_15_nosub_1.mp3,audiovisual,[4.985554999671876],1,None,1,3.6169940000399947,None,,,206,B,2026-04-02_15h38.01.629,exp_sofc_final,,2026.1.2,60.2674306986764,2026-04-02 15h38.04.386515 +0200,
,114,0,114,,,,None,None,,,,,,,,,,,,,114,0,114,0,1671.657831999939,,,,,,,,,,,,,,,,clips/clip_weißt_19_nosub_1.mp4,audios/silence.mp3,visual,[],None,None,,,,,,206,B,2026-04-02_15h38.01.629,exp_sofc_final,,2026.1.2,60.2674306986764,2026-04-02 15h38.04.386515 +0200,
,115,0,115,,,,4,None,4.166869500186294,None,,,,,,,,,,,115,0,115,0,1682.454916200135,,,,,,,,,,,,,,,,clips/clip_herz_03_sub_2.mp4,audios/silence.mp3,visual,"[5.403629200067371, 11.803956899791956]",4,None,4,4.166869500186294,None,,,206,B,2026-04-02_15h38.01.629,exp_sofc_final,,2026.1.2,60.2674306986764,2026-04-02 15h38.04.386515 +0200,
,116,0,116,,,,None,None,,,,,,,,,,,,,116,0,116,0,1700.0426441999152,,,,,,,,,,,,,,,,clips/clip_claude_19_nosub_0.mp4,audios/silence.mp3,visual,[],None,None,,,,,,206,B,2026-04-02_15h38.01.629,exp_sofc_final,,2026.1.2,60.2674306986764,2026-04-02 15h38.04.386515 +0200,
,117,0,117,,,,None,None,,,,,,,,,,,,,117,0,117,0,1711.26840060018,,,,,,,,,,,,,,,,clips/clip_holo_20_nosub_1.mp4,audios/silence.mp3,visual,[],None,None,,,,,,206,B,2026-04-02_15h38.01.629,exp_sofc_final,,2026.1.2,60.2674306986764,2026-04-02 15h38.04.386515 +0200,
,118,0,118,,,,None,None,,,,,,,,,,,,,118,0,118,0,1721.595227399841,,,,,,,,,,,,,,,,clips/clip_claude_26_sub_0.mp4,audios/clip_claude_26_sub_0.mp3,audiovisual,[6.6803899998776615],None,None,,,,,,206,B,2026-04-02_15h38.01.629,exp_sofc_final,,2026.1.2,60.2674306986764,2026-04-02 15h38.04.386515 +0200,
,119,0,119,,,,None,space,,,1.9214049000293016,None,,,,,,,,,119,0,119,0,1733.3686901000328,,,,,,,,,,,,,,,,clips/clip_weißt_06_sub_0.mp4,audios/silence.mp3,visual,[5.735465699806809],None,space,,,,1.9214049000293016,None,206,B,2026-04-02_15h38.01.629,exp_sofc_final,,2026.1.2,60.2674306986764,2026-04-02 15h38.04.386515 +0200,
,120,0,120,,,,3,None,3.6753831999376416,None,,,,,,,,,,,120,0,120,0,1746.6568113001995,,,,,,,,,,,,,,,,clips/clip_holo_28_sub_0.mp4,audios/clip_holo_28_sub_0.mp3,audiovisual,[],3,None,3,3.6753831999376416,None,,,206,B,2026-04-02_15h38.01.629,exp_sofc_final,,2026.1.2,60.2674306986764,2026-04-02 15h38.04.386515 +0200,
,121,0,121,,,,None,None,,,,,,,,,,,,,121,0,121,0,1759.6451795999892,,,,,,,,,,,,,,,,clips/clip_herz_07_sub_2.mp4,audios/silence.mp3,visual,"[4.76684350008145, 10.979764900170267]",None,None,,,,,,206,B,2026-04-02_15h38.01.629,exp_sofc_final,,2026.1.2,60.2674306986764,2026-04-02 15h38.04.386515 +0200,
,122,0,122,,,,None,None,,,,,,,,,,,,,122,0,122,0,1772.555979799945,,,,,,,,,,,,,,,,clips/clip_weißt_28_sub_1.mp4,audios/clip_weißt_28_sub_1.mp3,audiovisual,"[2.224290099926293, 7.29335239995271]",None,None,,,,,,206,B,2026-04-02_15h38.01.629,exp_sofc_final,,2026.1.2,60.2674306986764,2026-04-02 15h38.04.386515 +0200,
,123,0,123,,,,None,None,,,,,,,,,,,,,123,0,123,0,1783.4057212001644,,,,,,,,,,,,,,,,clips/clip_lied_17_nosub_2.mp4,audios/silence.mp3,visual,"[4.068661299999803, 7.188208099920303]",None,None,,,,,,206,B,2026-04-02_15h38.01.629,exp_sofc_final,,2026.1.2,60.2674306986764,2026-04-02 15h38.04.386515 +0200,
,124,0,124,,,,None,None,,,,,,,,,,,,,124,0,124,0,1794.3565046000294,,,,,,,,,,,,,,,,clips/clip_wurst_36_sub_0.mp4,audios/clip_wurst_36_sub_0.mp3,audiovisual,[],None,None,,,,,,206,B,2026-04-02_15h38.01.629,exp_sofc_final,,2026.1.2,60.2674306986764,2026-04-02 15h38.04.386515 +0200,
,125,0,125,,,,None,None,,,,,,,,,,,,,125,0,125,0,1805.161255700048,,,,,,,,,,,,,,,,clips/clip_holo_10_sub_1.mp4,audios/silence.mp3,visual,[6.236549499910325],None,None,,,,,,206,B,2026-04-02_15h38.01.629,exp_sofc_final,,2026.1.2,60.2674306986764,2026-04-02 15h38.04.386515 +0200,
,126,0,126,,,,None,None,,,,,,,,,,,,,126,0,126,0,1815.9215004001744,,,,,,,,,,,,,,,,clips/clip_holo_23_sub_1.mp4,audios/clip_holo_23_sub_1.mp3,audiovisual,[],None,None,,,,,,206,B,2026-04-02_15h38.01.629,exp_sofc_final,,2026.1.2,60.2674306986764,2026-04-02 15h38.04.386515 +0200,
,127,0,127,,,,None,None,,,,,,,,,,,,,127,0,127,0,1826.8477940000594,,,,,,,,,,,,,,,,clips/clip_wurst_12_sub_0.mp4,audios/clip_wurst_12_sub_0.mp3,audiovisual,[],None,None,,,,,,206,B,2026-04-02_15h38.01.629,exp_sofc_final,,2026.1.2,60.2674306986764,2026-04-02 15h38.04.386515 +0200,
,128,0,128,,,,None,None,,,,,,,,,,,,,128,0,128,0,1836.8061219998635,,,,,,,,,,,,,,,,clips/clip_lied_22_nosub_1.mp4,audios/clip_lied_22_nosub_1.mp3,audiovisual,[6.320557100232691],None,None,,,,,,206,B,2026-04-02_15h38.01.629,exp_sofc_final,,2026.1.2,60.2674306986764,2026-04-02 15h38.04.386515 +0200,
,129,0,129,,,,None,None,,,,,,,,,,,,,129,0,129,0,1847.9283420997672,,,,,,,,,,,,,,,,clips/clip_weißt_26_nosub_1.mp4,audios/clip_weißt_26_nosub_1.mp3,audiovisual,[7.6966327000409365],None,None,,,,,,206,B,2026-04-02_15h38.01.629,exp_sofc_final,,2026.1.2,60.2674306986764,2026-04-02 15h38.04.386515 +0200,
,130,0,130,,,,None,None,,,,,,,,,,,,,130,0,130,0,1858.9830633001402,,,,,,,,,,,,,,,,clips/clip_claude_16_nosub_1.mp4,audios/clip_claude_16_nosub_1.mp3,audiovisual,"[4.055770500097424, 4.256173000205308]",None,None,,,,,,206,B,2026-04-02_15h38.01.629,exp_sofc_final,,2026.1.2,60.2674306986764,2026-04-02 15h38.04.386515 +0200,
,131,0,131,,,,None,None,,,,,,,,,,,,,131,0,131,0,1871.0151728000492,,,,,,,,,,,,,,,,clips/clip_holo_02_sub_2.mp4,audios/silence.mp3,visual,[4.281712399795651],None,None,,,,,,206,B,2026-04-02_15h38.01.629,exp_sofc_final,,2026.1.2,60.2674306986764,2026-04-02 15h38.04.386515 +0200,
,132,0,132,,,,None,None,,,,,,,,,,,,,132,0,132,0,1883.1256798999384,,,,,,,,,,,,,,,,clips/clip_holo_21_nosub_1.mp4,audios/clip_holo_21_nosub_1.mp3,audiovisual,"[0.12744330009445548, 4.71346369991079]",None,None,,,,,,206,B,2026-04-02_15h38.01.629,exp_sofc_final,,2026.1.2,60.2674306986764,2026-04-02 15h38.04.386515 +0200,
,133,0,133,,,,None,None,,,,,,,,,,,,,133,0,133,0,1894.1674529002048,,,,,,,,,,,,,,,,clips/clip_holo_08_nosub_2.mp4,audios/silence.mp3,visual,[9.337595799937844],None,None,,,,,,206,B,2026-04-02_15h38.01.629,exp_sofc_final,,2026.1.2,60.2674306986764,2026-04-02 15h38.04.386515 +0200,
,134,0,134,,,,None,None,,,,,,,,,,,,,134,0,134,0,1905.8348221001215,,,,,,,,,,,,,,,,clips/clip_hund_35_sub_0.mp4,audios/clip_hund_35_sub_0.mp3,audiovisual,[],None,None,,,,,,206,B,2026-04-02_15h38.01.629,exp_sofc_final,,2026.1.2,60.2674306986764,2026-04-02 15h38.04.386515 +0200,
,135,0,135,,,,None,None,,,,,,,,,,,,,135,0,135,0,1917.0919739999808,,,,,,,,,,,,,,,,clips/clip_hund_30_nosub_0.mp4,audios/silence.mp3,visual,[],None,None,,,,,,206,B,2026-04-02_15h38.01.629,exp_sofc_final,,2026.1.2,60.2674306986764,2026-04-02 15h38.04.386515 +0200,
,136,0,136,,,,None,None,,,,,,,,,,,,,136,0,136,0,1929.96158140013,,,,,,,,,,,,,,,,clips/clip_lied_01_nosub_1.mp4,audios/clip_lied_01_nosub_1.mp3,audiovisual,[9.021563000045717],None,None,,,,,,206,B,2026-04-02_15h38.01.629,exp_sofc_final,,2026.1.2,60.2674306986764,2026-04-02 15h38.04.386515 +0200,
,137,0,137,,,,None,None,,,,,,,,,,,,,137,0,137,0,1940.8058866001666,,,,,,,,,,,,,,,,clips/clip_hund_13_sub_1.mp4,audios/silence.mp3,visual,[7.562398899812251],None,None,,,,,,206,B,2026-04-02_15h38.01.629,exp_sofc_final,,2026.1.2,60.2674306986764,2026-04-02 15h38.04.386515 +0200,
,138,0,138,,,,2,None,3.138639799784869,None,,,,,,,,,,,138,0,138,0,1953.3986348998733,,,,,,,,,,,,,,,,clips/clip_hund_19_nosub_0.mp4,audios/silence.mp3,visual,[],2,None,2,3.138639799784869,None,,,206,B,2026-04-02_15h38.01.629,exp_sofc_final,,2026.1.2,60.2674306986764,2026-04-02 15h38.04.386515 +0200,
,139,0,139,,,,None,None,,,,,,,,,,,,,139,0,139,0,1968.7782513997518,,,,,,,,,,,,,,,,clips/clip_weißt_01_sub_1.mp4,audios/silence.mp3,visual,[6.0113381003029644],None,None,,,,,,206,B,2026-04-02_15h38.01.629,exp_sofc_final,,2026.1.2,60.2674306986764,2026-04-02 15h38.04.386515 +0200,
,140,0,140,,,,None,None,,,,,,,,,,,,,140,0,140,0,1980.694011399988,,,,,,,,,,,,,,,,clips/clip_wurst_05_nosub_0.mp4,audios/clip_wurst_05_nosub_0.mp3,audiovisual,[],None,None,,,,,,206,B,2026-04-02_15h38.01.629,exp_sofc_final,,2026.1.2,60.2674306986764,2026-04-02 15h38.04.386515 +0200,
,141,0,141,,,,1,None,5.998229700140655,None,,,,,,,,,,,141,0,141,0,1990.1987916999497,,,,,,,,,,,,,,,,clips/clip_dampf_03_nosub_1.mp4,audios/silence.mp3,visual,[7.749236899893731],1,None,1,5.998229700140655,None,,,206,B,2026-04-02_15h38.01.629,exp_sofc_final,,2026.1.2,60.2674306986764,2026-04-02 15h38.04.386515 +0200,
,142,0,142,,,,None,None,,,,,,,,,,,,,142,0,142,0,2004.7001752997749,,,,,,,,,,,,,,,,clips/clip_claude_04_nosub_2.mp4,audios/clip_claude_04_nosub_2.mp3,audiovisual,[9.001269600354135],None,None,,,,,,206,B,2026-04-02_15h38.01.629,exp_sofc_final,,2026.1.2,60.2674306986764,2026-04-02 15h38.04.386515 +0200,
,143,0,143,,,,None,None,,,,,,,,,,,,,143,0,143,0,2014.537863700185,,,,,,,,,,,,,,,,clips/clip_wurst_18_nosub_0.mp4,audios/clip_wurst_18_nosub_0.mp3,audiovisual,[],None,None,,,,,,206,B,2026-04-02_15h38.01.629,exp_sofc_final,,2026.1.2,60.2674306986764,2026-04-02 15h38.04.386515 +0200,
,144,0,144,,,,None,None,,,,,,,,,,,,,144,0,144,0,2025.3863964001648,,,,,,,,,,,,,,,,clips/clip_herz_08_sub_0.mp4,audios/clip_herz_08_sub_0.mp3,audiovisual,"[7.168190700002015, 9.851748100016266]",None,None,,,,,,206,B,2026-04-02_15h38.01.629,exp_sofc_final,,2026.1.2,60.2674306986764,2026-04-02 15h38.04.386515 +0200,
,145,0,145,,,,None,None,,,,,,,,,,,,,145,0,145,0,2038.245590900071,,,,,,,,,,,,,,,,clips/clip_herz_13_nosub_0.mp4,audios/silence.mp3,visual,[11.863921700045466],None,None,,,,,,206,B,2026-04-02_15h38.01.629,exp_sofc_final,,2026.1.2,60.2674306986764,2026-04-02 15h38.04.386515 +0200,
,146,0,146,,,,None,None,,,,,,,,,,,,,146,0,146,0,2050.3633869998157,,,,,,,,,,,,,,,,clips/clip_claude_08_nosub_0.mp4,audios/clip_claude_08_nosub_0.mp3,audiovisual,[],None,None,,,,,,206,B,2026-04-02_15h38.01.629,exp_sofc_final,,2026.1.2,60.2674306986764,2026-04-02 15h38.04.386515 +0200,
,147,0,147,,,,None,None,,,,,,,,,,,,,147,0,147,0,2060.8400571001694,,,,,,,,,,,,,,,,clips/clip_wurst_11_sub_0.mp4,audios/silence.mp3,visual,[],None,None,,,,,,206,B,2026-04-02_15h38.01.629,exp_sofc_final,,2026.1.2,60.2674306986764,2026-04-02 15h38.04.386515 +0200,
,148,0,148,,,,None,None,,,,,,,,,,,,,148,0,148,0,2073.7746481001377,,,,,,,,,,,,,,,,clips/clip_claude_25_sub_0.mp4,audios/silence.mp3,visual,[],None,None,,,,,,206,B,2026-04-02_15h38.01.629,exp_sofc_final,,2026.1.2,60.2674306986764,2026-04-02 15h38.04.386515 +0200,
,149,0,149,,,,None,None,,,,,,,,,,,,,149,0,149,0,2084.8513154000975,,,,,,,,,,,,,,,,clips/clip_weißt_17_sub_0.mp4,audios/clip_weißt_17_sub_0.mp3,audiovisual,[],None,None,,,,,,206,B,2026-04-02_15h38.01.629,exp_sofc_final,,2026.1.2,60.2674306986764,2026-04-02 15h38.04.386515 +0200,
,150,0,150,,,,None,None,,,,,,,,,,,,,150,0,150,0,2097.316104600206,,,,,,,,,,,,,,,,clips/clip_holo_27_sub_1.mp4,audios/silence.mp3,visual,[5.870665299706161],None,None,,,,,,206,B,2026-04-02_15h38.01.629,exp_sofc_final,,2026.1.2,60.2674306986764,2026-04-02 15h38.04.386515 +0200,
,151,0,151,,,,None,None,,,,,,,,,,,,,151,0,151,0,2108.195727699902,,,,,,,,,,,,,,,,clips/clip_wurst_06_sub_2.mp4,audios/silence.mp3,visual,"[2.6908321999944746, 8.777225099969655]",None,None,,,,,,206,B,2026-04-02_15h38.01.629,exp_sofc_final,,2026.1.2,60.2674306986764,2026-04-02 15h38.04.386515 +0200,
,152,0,152,,,,None,None,,,,,,,,,,,,,152,0,152,0,2120.0544714001007,,,,,,,,,,,,,,,,clips/clip_herz_17_nosub_0.mp4,audios/silence.mp3,visual,[5.659231899771839],None,None,,,,,,206,B,2026-04-02_15h38.01.629,exp_sofc_final,,2026.1.2,60.2674306986764,2026-04-02 15h38.04.386515 +0200,
,153,0,153,,,,4,None,4.374279099982232,None,,,,,,,,,,,153,0,153,0,2129.2103146999143,,,,,,,,,,,,,,,,clips/clip_herz_11_sub_0.mp4,audios/silence.mp3,visual,[5.1417632000520825],4,None,4,4.374279099982232,None,,,206,B,2026-04-02_15h38.01.629,exp_sofc_final,,2026.1.2,60.2674306986764,2026-04-02 15h38.04.386515 +0200,
,154,0,154,,,,None,None,,,,,,,,,,,,,154,0,154,0,2143.7652837000787,,,,,,,,,,,,,,,,clips/clip_wurst_15_sub_2.mp4,audios/silence.mp3,visual,[6.5565752000547945],None,None,,,,,,206,B,2026-04-02_15h38.01.629,exp_sofc_final,,2026.1.2,60.2674306986764,2026-04-02 15h38.04.386515 +0200,
,155,0,155,,,,4,None,3.274829899892211,None,,,,,,,,,,,155,0,155,0,2153.914792700205,,,,,,,,,,,,,,,,clips/clip_hund_07_nosub_1.mp4,audios/silence.mp3,visual,[6.823174000252038],4,None,4,3.274829899892211,None,,,206,B,2026-04-02_15h38.01.629,exp_sofc_final,,2026.1.2,60.2674306986764,2026-04-02 15h38.04.386515 +0200,
,156,0,156,,,,None,None,,,,,,,,,,,,,156,0,156,0,2169.8172852001153,,,,,,,,,,,,,,,,clips/clip_wurst_27_sub_1.mp4,audios/silence.mp3,visual,[6.3110949001275],None,None,,,,,,206,B,2026-04-02_15h38.01.629,exp_sofc_final,,2026.1.2,60.2674306986764,2026-04-02 15h38.04.386515 +0200,
,157,0,157,,,,2,None,4.065293999854475,None,,,,,,,,,,,157,0,157,0,2180.736716500018,,,,,,,,,,,,,,,,clips/clip_weißt_03_nosub_0.mp4,audios/silence.mp3,visual,[],2,None,4,4.065293999854475,None,,,206,B,2026-04-02_15h38.01.629,exp_sofc_final,,2026.1.2,60.2674306986764,2026-04-02 15h38.04.386515 +0200,
,158,0,158,,,,2,None,3.301018300000578,None,,,,,,,,,,,158,0,158,0,2197.8955473001115,,,,,,,,,,,,,,,,clips/clip_holo_06_sub_2.mp4,audios/silence.mp3,visual,"[5.1418476998806, 9.458798800129443]",2,None,2,3.301018300000578,None,,,206,B,2026-04-02_15h38.01.629,exp_sofc_final,,2026.1.2,60.2674306986764,2026-04-02 15h38.04.386515 +0200,
,159,0,159,,,,None,None,,,,,,,,,,,,,159,0,159,0,2211.7950729001313,,,,,,,,,,,,,,,,clips/clip_wurst_17_nosub_0.mp4,audios/silence.mp3,visual,[],None,None,,,,,,206,B,2026-04-02_15h38.01.629,exp_sofc_final,,2026.1.2,60.2674306986764,2026-04-02 15h38.04.386515 +0200,
,160,0,160,,,,None,None,,,,,,,,,,,,,160,0,160,0,2220.664015199989,,,,,,,,,,,,,,,,clips/clip_wurst_07_sub_0.mp4,audios/clip_wurst_07_sub_0.mp3,audiovisual,[],None,None,,,,,,206,B,2026-04-02_15h38.01.629,exp_sofc_final,,2026.1.2,60.2674306986764,2026-04-02 15h38.04.386515 +0200,
,161,0,161,,,,None,None,,,,,,,,,,,,,161,0,161,0,2231.5518407998607,,,,,,,,,,,,,,,,clips/clip_lied_07_sub_1.mp4,audios/clip_lied_07_sub_1.mp3,audiovisual,[4.526365700177848],None,None,,,,,,206,B,2026-04-02_15h38.01.629,exp_sofc_final,,2026.1.2,60.2674306986764,2026-04-02 15h38.04.386515 +0200,
,162,0,162,,,,None,None,,,,,,,,,,,,,162,0,162,0,2241.435436599888,,,,,,,,,,,,,,,,clips/clip_wurst_33_nosub_0.mp4,audios/silence.mp3,visual,[],None,None,,,,,,206,B,2026-04-02_15h38.01.629,exp_sofc_final,,2026.1.2,60.2674306986764,2026-04-02 15h38.04.386515 +0200,
,163,0,163,,,,None,None,,,,,,,,,,,,,163,0,163,0,2252.1030844999477,,,,,,,,,,,,,,,,clips/clip_holo_05_nosub_2.mp4,audios/clip_holo_05_nosub_2.mp3,audiovisual,[7.2669731001369655],None,None,,,,,,206,B,2026-04-02_15h38.01.629,exp_sofc_final,,2026.1.2,60.2674306986764,2026-04-02 15h38.04.386515 +0200,
,164,0,164,,,,None,None,,,,,,,,,,,,,164,0,164,0,2262.1677251998335,,,,,,,,,,,,,,,,clips/clip_wurst_24_sub_1.mp4,audios/clip_wurst_24_sub_1.mp3,audiovisual,[],None,None,,,,,,206,B,2026-04-02_15h38.01.629,exp_sofc_final,,2026.1.2,60.2674306986764,2026-04-02 15h38.04.386515 +0200,
,165,0,165,,,,None,None,,,,,,,,,,,,,165,0,165,0,2274.2890582000837,,,,,,,,,,,,,,,,clips/clip_wurst_04_nosub_2.mp4,audios/silence.mp3,visual,"[5.559783999808133, 7.212867199908942]",None,None,,,,,,206,B,2026-04-02_15h38.01.629,exp_sofc_final,,2026.1.2,60.2674306986764,2026-04-02 15h38.04.386515 +0200,
,166,0,166,,,,1,None,5.725782699882984,None,,,,,,,,,,,166,0,166,0,2286.812335500028,,,,,,,,,,,,,,,,clips/clip_wurst_01_sub_0.mp4,audios/silence.mp3,visual,[],1,None,2,5.725782699882984,None,,,206,B,2026-04-02_15h38.01.629,exp_sofc_final,,2026.1.2,60.2674306986764,2026-04-02 15h38.04.386515 +0200,
,167,0,167,,,,None,None,,,,,,,,,,,,,167,0,167,0,2303.4676749999635,,,,,,,,,,,,,,,,clips/clip_wurst_20_sub_0.mp4,audios/clip_wurst_20_sub_0.mp3,audiovisual,[],None,None,,,,,,206,B,2026-04-02_15h38.01.629,exp_sofc_final,,2026.1.2,60.2674306986764,2026-04-02 15h38.04.386515 +0200,
,168,0,168,,,,None,None,,,,,,,,,,,,,168,0,168,0,2314.248872499913,,,,,,,,,,,,,,,,clips/clip_holo_24_nosub_2.mp4,audios/silence.mp3,visual,"[7.052137199789286, 9.938428999856114]",None,None,,,,,,206,B,2026-04-02_15h38.01.629,exp_sofc_final,,2026.1.2,60.2674306986764,2026-04-02 15h38.04.386515 +0200,
,169,0,169,,,,None,None,,,,,,,,,,,,,169,0,169,0,2324.9615589999594,,,,,,,,,,,,,,,,clips/clip_hund_23_nosub_1.mp4,audios/silence.mp3,visual,[],None,None,,,,,,206,B,2026-04-02_15h38.01.629,exp_sofc_final,,2026.1.2,60.2674306986764,2026-04-02 15h38.04.386515 +0200,
,170,0,170,,,,None,None,,,,,,,,,,,,,170,0,170,0,2336.763517399784,,,,,,,,,,,,,,,,clips/clip_weißt_30_nosub_2.mp4,audios/clip_weißt_30_nosub_2.mp3,audiovisual,[12.103785499930382],None,None,,,,,,206,B,2026-04-02_15h38.01.629,exp_sofc_final,,2026.1.2,60.2674306986764,2026-04-02 15h38.04.386515 +0200,
,171,0,171,,,,4,None,5.998442300129682,None,,,,,,,,,,,171,0,171,0,2349.610201700125,,,,,,,,,,,,,,,,clips/clip_lied_04_nosub_0.mp4,audios/silence.mp3,visual,[],4,None,1,5.998442300129682,None,,,206,B,2026-04-02_15h38.01.629,exp_sofc_final,,2026.1.2,60.2674306986764,2026-04-02 15h38.04.386515 +0200,
,172,0,172,,,,None,None,,,,,,,,,,,,,172,0,172,0,2367.6817934000865,,,,,,,,,,,,,,,,clips/clip_dampf_04_nosub_1.mp4,audios/clip_dampf_04_nosub_1.mp3,audiovisual,[6.235687399748713],None,None,,,,,,206,B,2026-04-02_15h38.01.629,exp_sofc_final,,2026.1.2,60.2674306986764,2026-04-02 15h38.04.386515 +0200,
,173,0,173,,,,None,None,,,,,,,,,,,,,173,0,173,0,2378.09764729999,,,,,,,,,,,,,,,,clips/clip_lied_08_nosub_1.mp4,audios/silence.mp3,visual,[7.682684200350195],None,None,,,,,,206,B,2026-04-02_15h38.01.629,exp_sofc_final,,2026.1.2,60.2674306986764,2026-04-02 15h38.04.386515 +0200,
,174,0,174,,,,None,None,,,,,,,,,,,,,174,0,174,0,2388.0584653997794,,,,,,,,,,,,,,,,clips/clip_claude_21_sub_1.mp4,audios/silence.mp3,visual,[9.965694099664688],None,None,,,,,,206,B,2026-04-02_15h38.01.629,exp_sofc_final,,2026.1.2,60.2674306986764,2026-04-02 15h38.04.386515 +0200,
,175,0,175,,,,None,None,,,,,,,,,,,,,175,0,175,0,2401.1710219997913,,,,,,,,,,,,,,,,clips/clip_lied_09_nosub_1.mp4,audios/clip_lied_09_nosub_1.mp3,audiovisual,[],None,None,,,,,,206,B,2026-04-02_15h38.01.629,exp_sofc_final,,2026.1.2,60.2674306986764,2026-04-02 15h38.04.386515 +0200,
,176,0,176,,,,3,None,3.4072612999007106,None,,,,,,,,,,,176,0,176,0,2412.4343555998057,,,,,,,,,,,,,,,,clips/clip_weißt_20_nosub_1.mp4,audios/clip_weißt_20_nosub_1.mp3,audiovisual,[7.97161820018664],3,None,3,3.4072612999007106,None,,,206,B,2026-04-02_15h38.01.629,exp_sofc_final,,2026.1.2,60.2674306986764,2026-04-02 15h38.04.386515 +0200,
,177,0,177,,,,None,None,,,,,,,,,,,,,177,0,177,0,2426.7497140001506,,,,,,,,,,,,,,,,clips/clip_hund_04_sub_0.mp4,audios/silence.mp3,visual,[],None,None,,,,,,206,B,2026-04-02_15h38.01.629,exp_sofc_final,,2026.1.2,60.2674306986764,2026-04-02 15h38.04.386515 +0200,
,178,0,178,,,,None,None,,,,,,,,,,,,,178,0,178,0,2437.4443307002075,,,,,,,,,,,,,,,,clips/clip_weißt_27_sub_1.mp4,audios/silence.mp3,visual,[1.4627578002400696],None,None,,,,,,206,B,2026-04-02_15h38.01.629,exp_sofc_final,,2026.1.2,60.2674306986764,2026-04-02 15h38.04.386515 +0200,
,179,0,179,,,,None,None,,,,,,,,,,,,,179,0,179,0,2448.1411385000683,,,,,,,,,,,,,,,,clips/clip_hund_22_sub_1.mp4,audios/clip_hund_22_sub_1.mp3,audiovisual,[],None,None,,,,,,206,B,2026-04-02_15h38.01.629,exp_sofc_final,,2026.1.2,60.2674306986764,2026-04-02 15h38.04.386515 +0200,
,,,,,,,,,,,,,,,,,,,,,,,,,,,,,,,,,,,,,,,,,,,,,,,,,,,,206,B,2026-04-02_15h38.01.629,exp_sofc_final,,2026.1.2,60.2674306986764,2026-04-02 15h38.04.386515 +0200,
