instruction_text,thisN,thisTrialN,thisRepN,prac_attention_resp.keys,prac_attention_resp.rt,prac_attention_resp.duration,exp_atttention_resp.keys,exp_pause_resp.keys,exp_atttention_resp.rt,exp_atttention_resp.duration,exp_pause_resp.rt,exp_pause_resp.duration,instruction_trial.thisRepN,instruction_trial.thisTrialN,instruction_trial.thisN,instruction_trial.thisIndex,practice_trials.thisRepN,practice_trials.thisTrialN,practice_trials.thisN,practice_trials.thisIndex,experiment_trials.thisRepN,experiment_trials.thisTrialN,experiment_trials.thisN,experiment_trials.thisIndex,thisRow.t,notes,piloting,assigned_ls_group,slider_informed_consent.response,Practice_clip_name,Practice_video_used,Practice_audio_used,Practice_modality,Practice_subtitles,Practice_attention_check,Practice_all_cut_rts,Practice_correct_key_required,practice_trials.prac_attention_resp.keys,practice_trials.prac_attention_resp.rt,practice_trials.prac_attention_resp.duration,video_used,audio_used,condition_modality,all_cut_rts,experiment_trials.exp_atttention_resp.keys,experiment_trials.exp_pause_resp.keys,correct_key_required,experiment_trials.exp_atttention_resp.rt,experiment_trials.exp_atttention_resp.duration,experiment_trials.exp_pause_resp.rt,experiment_trials.exp_pause_resp.duration,participant,session,date,expName,expVersion,psychopyVersion,frameRate,expStart,
"Einverständniserklärung

Bitte lesen Sie die folgende Erklärung aufmerksam durch:

Ich bestätige, dass ich über 18 Jahre alt bin und ausreichend Zeit hatte, mich für die Teilnahme zu entscheiden. Ich wurde über die Erhebung, Verarbeitung und öffentliche Zugänglichmachung meiner anonymisierten Daten angemessen informiert.
Ich bin mir bewusst, dass ich das Experiment jederzeit abbrechen kann.

(Drücken Sie die Leertaste, um fortzufahren)",4,4,0,,,,,,,,,,0,4,4,4,,,,,,,,,50.799595000222325,,False,0,ich stimme zu,,,,,,,,,,,,,,,,,,,,,,,207,B,2026-04-05_17h00.26.305,exp_sofc_final,,2026.1.2,58.89302316945961,2026-04-05 17h00.27.628045 +0200,
,,,,,,,,,,,,,,,,,,,,,,,,,,,,,,,,,,,,,,,,,,,,,,,,,,,,207,B,2026-04-05_17h00.26.305,exp_sofc_final,,2026.1.2,58.89302316945961,2026-04-05 17h00.27.628045 +0200,
,0,0,0,1,4.918132199905813,None,,,,,,,,,,,0,0,0,0,,,,,59.62567739980295,,,,,clip_weißt_05_sub_0,clips/clip_weißt_05_sub_0.mp4,audios/clip_weißt_05_sub_0.mp3,audiovisual,sub,True,[],3,1,4.918132199905813,None,,,,,,,,,,,,207,B,2026-04-05_17h00.26.305,exp_sofc_final,,2026.1.2,58.89302316945961,2026-04-05 17h00.27.628045 +0200,
,1,0,1,None,,,,,,,,,,,,,1,0,1,0,,,,,74.75836650002748,,,,,clip_hund_31_sub_0,clips/clip_hund_31_sub_0.mp4,audios/silence.mp3,visual,sub,False,[],,None,,,,,,,,,,,,,,207,B,2026-04-05_17h00.26.305,exp_sofc_final,,2026.1.2,58.89302316945961,2026-04-05 17h00.27.628045 +0200,
,2,0,2,None,,,,,,,,,,,,,2,0,2,0,,,,,84.02588720014319,,,,,clip_hund_26_sub_1,clips/clip_hund_26_sub_1.mp4,audios/silence.mp3,visual,sub,False,[1.4807417001575232],,None,,,,,,,,,,,,,,207,B,2026-04-05_17h00.26.305,exp_sofc_final,,2026.1.2,58.89302316945961,2026-04-05 17h00.27.628045 +0200,
,3,0,3,None,,,,,,,,,,,,,3,0,3,0,,,,,94.25388249987736,,,,,clip_hund_28_nosub_0,clips/clip_hund_28_nosub_0.mp4,audios/clip_hund_28_nosub_0.mp3,audiovisual,nosub,False,[],,None,,,,,,,,,,,,,,207,B,2026-04-05_17h00.26.305,exp_sofc_final,,2026.1.2,58.89302316945961,2026-04-05 17h00.27.628045 +0200,
,4,0,4,1,11.980939799919724,None,,,,,,,,,,,4,0,4,0,,,,,104.90793510014191,,,,,clip_weißt_18_nosub_1,clips/clip_weißt_18_nosub_1.mp4,audios/silence.mp3,visual,nosub,True,[8.804608599748462],2,1,11.980939799919724,None,,,,,,,,,,,,207,B,2026-04-05_17h00.26.305,exp_sofc_final,,2026.1.2,58.89302316945961,2026-04-05 17h00.27.628045 +0200,
,5,0,5,None,,,,,,,,,,,,,5,0,5,0,,,,,129.86367919994518,,,,,clip_hund_06_nosub_0,clips/clip_hund_06_nosub_0.mp4,audios/clip_hund_06_nosub_0.mp3,audiovisual,nosub,False,[],,None,,,,,,,,,,,,,,207,B,2026-04-05_17h00.26.305,exp_sofc_final,,2026.1.2,58.89302316945961,2026-04-05 17h00.27.628045 +0200,
,6,0,6,None,,,,,,,,,,,,,6,0,6,0,,,,,141.47343769995496,,,,,clip_weißt_09_sub_1,clips/clip_weißt_09_sub_1.mp4,audios/silence.mp3,visual,sub,False,[6.545491700060666],,None,,,,,,,,,,,,,,207,B,2026-04-05_17h00.26.305,exp_sofc_final,,2026.1.2,58.89302316945961,2026-04-05 17h00.27.628045 +0200,
,7,0,7,None,,,,,,,,,,,,,7,0,7,0,,,,,151.3342158999294,,,,,clip_wurst_09_sub_1,clips/clip_wurst_09_sub_1.mp4,audios/clip_wurst_09_sub_1.mp3,audiovisual,sub,False,[5.349090800154954],,None,,,,,,,,,,,,,,207,B,2026-04-05_17h00.26.305,exp_sofc_final,,2026.1.2,58.89302316945961,2026-04-05 17h00.27.628045 +0200,
,8,0,8,None,,,,,,,,,,,,,8,0,8,0,,,,,163.42810510005802,,,,,clip_weißt_21_nosub_0,clips/clip_weißt_21_nosub_0.mp4,audios/silence.mp3,visual,nosub,False,[0.3471494000405073],,None,,,,,,,,,,,,,,207,B,2026-04-05_17h00.26.305,exp_sofc_final,,2026.1.2,58.89302316945961,2026-04-05 17h00.27.628045 +0200,
,9,0,9,4,7.671903700102121,None,,,,,,,,,,,9,0,9,0,,,,,174.33257120009512,,,,,clip_hund_25_sub_1,clips/clip_hund_25_sub_1.mp4,audios/silence.mp3,visual,sub,True,[6.615477799903601],4,4,7.671903700102121,None,,,,,,,,,,,,207,B,2026-04-05_17h00.26.305,exp_sofc_final,,2026.1.2,58.89302316945961,2026-04-05 17h00.27.628045 +0200,
,10,0,10,None,,,,,,,,,,,,,10,0,10,0,,,,,191.22503260010853,,,,,clip_hund_02_sub_1,clips/clip_hund_02_sub_1.mp4,audios/clip_hund_02_sub_1.mp3,audiovisual,sub,False,[9.552635499741882],,None,,,,,,,,,,,,,,207,B,2026-04-05_17h00.26.305,exp_sofc_final,,2026.1.2,58.89302316945961,2026-04-05 17h00.27.628045 +0200,
,11,0,11,1,14.288617599755526,None,,,,,,,,,,,11,0,11,0,,,,,201.95443180017173,,,,,clip_weißt_10_nosub_1,clips/clip_weißt_10_nosub_1.mp4,audios/clip_weißt_10_nosub_1.mp3,audiovisual,nosub,True,[5.424039099831134],1,1,14.288617599755526,None,,,,,,,,,,,,207,B,2026-04-05_17h00.26.305,exp_sofc_final,,2026.1.2,58.89302316945961,2026-04-05 17h00.27.628045 +0200,
,,,,,,,,,,,,,,,,,,,,,,,,,,,,,,,,,,,,,,,,,,,,,,,,,,,,207,B,2026-04-05_17h00.26.305,exp_sofc_final,,2026.1.2,58.89302316945961,2026-04-05 17h00.27.628045 +0200,
,0,0,0,,,,None,None,,,,,,,,,,,,,0,0,0,0,271.5651453002356,,,,,,,,,,,,,,,,clips/clip_hund_27_nosub_1.mp4,audios/silence.mp3,visual,[5.036062099970877],None,None,,,,,,207,B,2026-04-05_17h00.26.305,exp_sofc_final,,2026.1.2,58.89302316945961,2026-04-05 17h00.27.628045 +0200,
,1,0,1,,,,None,None,,,,,,,,,,,,,1,0,1,0,282.60400350019336,,,,,,,,,,,,,,,,clips/clip_lied_21_sub_2.mp4,audios/silence.mp3,visual,"[5.189112899824977, 10.581258499994874]",None,None,,,,,,207,B,2026-04-05_17h00.26.305,exp_sofc_final,,2026.1.2,58.89302316945961,2026-04-05 17h00.27.628045 +0200,
,2,0,2,,,,None,None,,,,,,,,,,,,,2,0,2,0,295.01636679982767,,,,,,,,,,,,,,,,clips/clip_claude_26_nosub_0.mp4,audios/clip_claude_26_nosub_0.mp3,audiovisual,[4.198324900120497],None,None,,,,,,207,B,2026-04-05_17h00.26.305,exp_sofc_final,,2026.1.2,58.89302316945961,2026-04-05 17h00.27.628045 +0200,
,3,0,3,,,,None,None,,,,,,,,,,,,,3,0,3,0,306.7375356000848,,,,,,,,,,,,,,,,clips/clip_claude_23_sub_0.mp4,audios/silence.mp3,visual,[],None,None,,,,,,207,B,2026-04-05_17h00.26.305,exp_sofc_final,,2026.1.2,58.89302316945961,2026-04-05 17h00.27.628045 +0200,
,4,0,4,,,,4,None,4.9960110001266,None,,,,,,,,,,,4,0,4,0,319.7804871001281,,,,,,,,,,,,,,,,clips/clip_lied_11_nosub_1.mp4,audios/clip_lied_11_nosub_1.mp3,audiovisual,[8.041978599969298],4,None,4,4.9960110001266,None,,,207,B,2026-04-05_17h00.26.305,exp_sofc_final,,2026.1.2,58.89302316945961,2026-04-05 17h00.27.628045 +0200,
,5,0,5,,,,1,None,6.074029699899256,None,,,,,,,,,,,5,0,5,0,336.7300160001032,,,,,,,,,,,,,,,,clips/clip_wurst_07_nosub_0.mp4,audios/clip_wurst_07_nosub_0.mp3,audiovisual,[],1,None,4,6.074029699899256,None,,,207,B,2026-04-05_17h00.26.305,exp_sofc_final,,2026.1.2,58.89302316945961,2026-04-05 17h00.27.628045 +0200,
,6,0,6,,,,None,None,,,,,,,,,,,,,6,0,6,0,353.7021626001224,,,,,,,,,,,,,,,,clips/clip_hund_03_sub_1.mp4,audios/clip_hund_03_sub_1.mp3,audiovisual,[6.683881400153041],None,None,,,,,,207,B,2026-04-05_17h00.26.305,exp_sofc_final,,2026.1.2,58.89302316945961,2026-04-05 17h00.27.628045 +0200,
,7,0,7,,,,None,None,,,,,,,,,,,,,7,0,7,0,368.58023469988257,,,,,,,,,,,,,,,,clips/clip_weißt_03_sub_0.mp4,audios/silence.mp3,visual,[],None,None,,,,,,207,B,2026-04-05_17h00.26.305,exp_sofc_final,,2026.1.2,58.89302316945961,2026-04-05 17h00.27.628045 +0200,
,8,0,8,,,,1,None,3.0751563999801874,None,,,,,,,,,,,8,0,8,0,380.92034860001877,,,,,,,,,,,,,,,,clips/clip_lied_22_sub_1.mp4,audios/clip_lied_22_sub_1.mp3,audiovisual,[5.953663599677384],1,None,1,3.0751563999801874,None,,,207,B,2026-04-05_17h00.26.305,exp_sofc_final,,2026.1.2,58.89302316945961,2026-04-05 17h00.27.628045 +0200,
,9,0,9,,,,None,None,,,,,,,,,,,,,9,0,9,0,395.31778750009835,,,,,,,,,,,,,,,,clips/clip_hund_13_nosub_1.mp4,audios/silence.mp3,visual,[],None,None,,,,,,207,B,2026-04-05_17h00.26.305,exp_sofc_final,,2026.1.2,58.89302316945961,2026-04-05 17h00.27.628045 +0200,
,10,0,10,,,,None,None,,,,,,,,,,,,,10,0,10,0,407.91559070022777,,,,,,,,,,,,,,,,clips/clip_weißt_14_sub_2.mp4,audios/silence.mp3,visual,"[2.671803299803287, 8.135512799955904]",None,None,,,,,,207,B,2026-04-05_17h00.26.305,exp_sofc_final,,2026.1.2,58.89302316945961,2026-04-05 17h00.27.628045 +0200,
,11,0,11,,,,3,None,5.243067799601704,None,,,,,,,,,,,11,0,11,0,417.71991509990767,,,,,,,,,,,,,,,,clips/clip_weißt_26_sub_1.mp4,audios/clip_weißt_26_sub_1.mp3,audiovisual,"[6.366392100229859, 8.964199100155383]",3,None,1,5.243067799601704,None,,,207,B,2026-04-05_17h00.26.305,exp_sofc_final,,2026.1.2,58.89302316945961,2026-04-05 17h00.27.628045 +0200,
,12,0,12,,,,2,None,2.326679500285536,None,,,,,,,,,,,12,0,12,0,434.0338992998004,,,,,,,,,,,,,,,,clips/clip_claude_05_nosub_2.mp4,audios/silence.mp3,visual,[4.891343200113624],2,None,2,2.326679500285536,None,,,207,B,2026-04-05_17h00.26.305,exp_sofc_final,,2026.1.2,58.89302316945961,2026-04-05 17h00.27.628045 +0200,
,13,0,13,,,,None,None,,,,,,,,,,,,,13,0,13,0,450.6410328000784,,,,,,,,,,,,,,,,clips/clip_wurst_28_nosub_1.mp4,audios/clip_wurst_28_nosub_1.mp3,audiovisual,[],None,None,,,,,,207,B,2026-04-05_17h00.26.305,exp_sofc_final,,2026.1.2,58.89302316945961,2026-04-05 17h00.27.628045 +0200,
,14,0,14,,,,None,None,,,,,,,,,,,,,14,0,14,0,461.23843399994075,,,,,,,,,,,,,,,,clips/clip_wurst_31_nosub_1.mp4,audios/silence.mp3,visual,[],None,None,,,,,,207,B,2026-04-05_17h00.26.305,exp_sofc_final,,2026.1.2,58.89302316945961,2026-04-05 17h00.27.628045 +0200,
,15,0,15,,,,None,None,,,,,,,,,,,,,15,0,15,0,473.11450329981744,,,,,,,,,,,,,,,,clips/clip_holo_10_nosub_1.mp4,audios/silence.mp3,visual,[5.883160000201315],None,None,,,,,,207,B,2026-04-05_17h00.26.305,exp_sofc_final,,2026.1.2,58.89302316945961,2026-04-05 17h00.27.628045 +0200,
,16,0,16,,,,None,None,,,,,,,,,,,,,16,0,16,0,484.1019581002183,,,,,,,,,,,,,,,,clips/clip_weißt_08_sub_0.mp4,audios/silence.mp3,visual,[8.241164499893785],None,None,,,,,,207,B,2026-04-05_17h00.26.305,exp_sofc_final,,2026.1.2,58.89302316945961,2026-04-05 17h00.27.628045 +0200,
,17,0,17,,,,None,None,,,,,,,,,,,,,17,0,17,0,495.29312819987535,,,,,,,,,,,,,,,,clips/clip_hund_35_nosub_0.mp4,audios/clip_hund_35_nosub_0.mp3,audiovisual,[],None,None,,,,,,207,B,2026-04-05_17h00.26.305,exp_sofc_final,,2026.1.2,58.89302316945961,2026-04-05 17h00.27.628045 +0200,
,18,0,18,,,,1,None,7.6399488998577,None,,,,,,,,,,,18,0,18,0,506.41270900005475,,,,,,,,,,,,,,,,clips/clip_claude_25_nosub_0.mp4,audios/silence.mp3,visual,[],1,None,4,7.6399488998577,None,,,207,B,2026-04-05_17h00.26.305,exp_sofc_final,,2026.1.2,58.89302316945961,2026-04-05 17h00.27.628045 +0200,
,19,0,19,,,,None,None,,,,,,,,,,,,,19,0,19,0,525.1470596999861,,,,,,,,,,,,,,,,clips/clip_holo_12_sub_1.mp4,audios/silence.mp3,visual,[8.439746099989861],None,None,,,,,,207,B,2026-04-05_17h00.26.305,exp_sofc_final,,2026.1.2,58.89302316945961,2026-04-05 17h00.27.628045 +0200,
,20,0,20,,,,None,None,,,,,,,,,,,,,20,0,20,0,536.3153261998668,,,,,,,,,,,,,,,,clips/clip_hund_07_sub_1.mp4,audios/silence.mp3,visual,[6.39294150006026],None,None,,,,,,207,B,2026-04-05_17h00.26.305,exp_sofc_final,,2026.1.2,58.89302316945961,2026-04-05 17h00.27.628045 +0200,
,21,0,21,,,,None,None,,,,,,,,,,,,,21,0,21,0,548.7863725000061,,,,,,,,,,,,,,,,clips/clip_weißt_22_nosub_0.mp4,audios/silence.mp3,visual,[],None,None,,,,,,207,B,2026-04-05_17h00.26.305,exp_sofc_final,,2026.1.2,58.89302316945961,2026-04-05 17h00.27.628045 +0200,
,22,0,22,,,,None,None,,,,,,,,,,,,,22,0,22,0,561.6893572001718,,,,,,,,,,,,,,,,clips/clip_lied_17_sub_2.mp4,audios/silence.mp3,visual,[3.122179000172764],None,None,,,,,,207,B,2026-04-05_17h00.26.305,exp_sofc_final,,2026.1.2,58.89302316945961,2026-04-05 17h00.27.628045 +0200,
,23,0,23,,,,None,None,,,,,,,,,,,,,23,0,23,0,581.4441086999141,,,,,,,,,,,,,,,,clips/clip_wurst_14_sub_1.mp4,audios/clip_wurst_14_sub_1.mp3,audiovisual,[],None,None,,,,,,207,B,2026-04-05_17h00.26.305,exp_sofc_final,,2026.1.2,58.89302316945961,2026-04-05 17h00.27.628045 +0200,
,24,0,24,,,,None,None,,,,,,,,,,,,,24,0,24,0,591.8054110999219,,,,,,,,,,,,,,,,clips/clip_claude_20_sub_1.mp4,audios/clip_claude_20_sub_1.mp3,audiovisual,[6.525360099971294],None,None,,,,,,207,B,2026-04-05_17h00.26.305,exp_sofc_final,,2026.1.2,58.89302316945961,2026-04-05 17h00.27.628045 +0200,
,25,0,25,,,,None,None,,,,,,,,,,,,,25,0,25,0,604.6286134999245,,,,,,,,,,,,,,,,clips/clip_lied_09_sub_1.mp4,audios/clip_lied_09_sub_1.mp3,audiovisual,[],None,None,,,,,,207,B,2026-04-05_17h00.26.305,exp_sofc_final,,2026.1.2,58.89302316945961,2026-04-05 17h00.27.628045 +0200,
,26,0,26,,,,None,None,,,,,,,,,,,,,26,0,26,0,615.8438745001331,,,,,,,,,,,,,,,,clips/clip_holo_14_nosub_0.mp4,audios/silence.mp3,visual,[],None,None,,,,,,207,B,2026-04-05_17h00.26.305,exp_sofc_final,,2026.1.2,58.89302316945961,2026-04-05 17h00.27.628045 +0200,
,27,0,27,,,,None,None,,,,,,,,,,,,,27,0,27,0,626.7330657001585,,,,,,,,,,,,,,,,clips/clip_hund_19_sub_0.mp4,audios/silence.mp3,visual,[0.47033740021288395],None,None,,,,,,207,B,2026-04-05_17h00.26.305,exp_sofc_final,,2026.1.2,58.89302316945961,2026-04-05 17h00.27.628045 +0200,
,28,0,28,,,,None,None,,,,,,,,,,,,,28,0,28,0,642.6532167000696,,,,,,,,,,,,,,,,clips/clip_dampf_01_nosub_0.mp4,audios/silence.mp3,visual,[],None,None,,,,,,207,B,2026-04-05_17h00.26.305,exp_sofc_final,,2026.1.2,58.89302316945961,2026-04-05 17h00.27.628045 +0200,
,29,0,29,,,,None,None,,,,,,,,,,,,,29,0,29,0,652.7825556001626,,,,,,,,,,,,,,,,clips/clip_hund_11_sub_1.mp4,audios/silence.mp3,visual,[6.274416199885309],None,None,,,,,,207,B,2026-04-05_17h00.26.305,exp_sofc_final,,2026.1.2,58.89302316945961,2026-04-05 17h00.27.628045 +0200,
,30,0,30,,,,3,None,13.900553700048476,None,,,,,,,,,,,30,0,30,0,663.5072567998432,,,,,,,,,,,,,,,,clips/clip_herz_08_nosub_0.mp4,audios/clip_herz_08_nosub_0.mp3,audiovisual,[5.254803599789739],3,None,3,13.900553700048476,None,,,207,B,2026-04-05_17h00.26.305,exp_sofc_final,,2026.1.2,58.89302316945961,2026-04-05 17h00.27.628045 +0200,
,31,0,31,,,,None,None,,,,,,,,,,,,,31,0,31,0,691.4247289998457,,,,,,,,,,,,,,,,clips/clip_claude_01_nosub_2.mp4,audios/silence.mp3,visual,"[6.561908199917525, 8.604903100058436]",None,None,,,,,,207,B,2026-04-05_17h00.26.305,exp_sofc_final,,2026.1.2,58.89302316945961,2026-04-05 17h00.27.628045 +0200,
,32,0,32,,,,None,None,,,,,,,,,,,,,32,0,32,0,703.2939412002452,,,,,,,,,,,,,,,,clips/clip_weißt_17_nosub_0.mp4,audios/clip_weißt_17_nosub_0.mp3,audiovisual,[],None,None,,,,,,207,B,2026-04-05_17h00.26.305,exp_sofc_final,,2026.1.2,58.89302316945961,2026-04-05 17h00.27.628045 +0200,
,33,0,33,,,,None,None,,,,,,,,,,,,,33,0,33,0,715.6050701001659,,,,,,,,,,,,,,,,clips/clip_weißt_04_sub_0.mp4,audios/clip_weißt_04_sub_0.mp3,audiovisual,[],None,None,,,,,,207,B,2026-04-05_17h00.26.305,exp_sofc_final,,2026.1.2,58.89302316945961,2026-04-05 17h00.27.628045 +0200,
,34,0,34,,,,1,None,3.5861680996604264,None,,,,,,,,,,,34,0,34,0,726.4816084001213,,,,,,,,,,,,,,,,clips/clip_wurst_08_sub_1.mp4,audios/silence.mp3,visual,"[0.2857424998655915, 5.379151899833232]",1,None,1,3.5861680996604264,None,,,207,B,2026-04-05_17h00.26.305,exp_sofc_final,,2026.1.2,58.89302316945961,2026-04-05 17h00.27.628045 +0200,
,35,0,35,,,,None,None,,,,,,,,,,,,,35,0,35,0,739.4759529000148,,,,,,,,,,,,,,,,clips/clip_herz_04_nosub_0.mp4,audios/clip_herz_04_nosub_0.mp3,audiovisual,[8.174432500265539],None,None,,,,,,207,B,2026-04-05_17h00.26.305,exp_sofc_final,,2026.1.2,58.89302316945961,2026-04-05 17h00.27.628045 +0200,
,36,0,36,,,,1,None,2.706634799949825,None,,,,,,,,,,,36,0,36,0,751.3512531998567,,,,,,,,,,,,,,,,clips/clip_claude_02_nosub_1.mp4,audios/clip_claude_02_nosub_1.mp3,audiovisual,[5.6501127001829445],1,None,1,2.706634799949825,None,,,207,B,2026-04-05_17h00.26.305,exp_sofc_final,,2026.1.2,58.89302316945961,2026-04-05 17h00.27.628045 +0200,
,37,0,37,,,,None,None,,,,,,,,,,,,,37,0,37,0,764.7267972999252,,,,,,,,,,,,,,,,clips/clip_hund_34_nosub_1.mp4,audios/silence.mp3,visual,[],None,None,,,,,,207,B,2026-04-05_17h00.26.305,exp_sofc_final,,2026.1.2,58.89302316945961,2026-04-05 17h00.27.628045 +0200,
,38,0,38,,,,None,None,,,,,,,,,,,,,38,0,38,0,776.0812658001669,,,,,,,,,,,,,,,,clips/clip_holo_07_nosub_0.mp4,audios/clip_holo_07_nosub_0.mp3,audiovisual,[],None,None,,,,,,207,B,2026-04-05_17h00.26.305,exp_sofc_final,,2026.1.2,58.89302316945961,2026-04-05 17h00.27.628045 +0200,
,39,0,39,,,,None,None,,,,,,,,,,,,,39,0,39,0,786.366495499853,,,,,,,,,,,,,,,,clips/clip_hund_29_nosub_0.mp4,audios/clip_hund_29_nosub_0.mp3,audiovisual,[10.39250379987061],None,None,,,,,,207,B,2026-04-05_17h00.26.305,exp_sofc_final,,2026.1.2,58.89302316945961,2026-04-05 17h00.27.628045 +0200,
,40,0,40,,,,None,None,,,,,,,,,,,,,40,0,40,0,798.6605279999785,,,,,,,,,,,,,,,,clips/clip_herz_05_sub_0.mp4,audios/silence.mp3,visual,"[6.215783399995416, 8.287844199687243]",None,None,,,,,,207,B,2026-04-05_17h00.26.305,exp_sofc_final,,2026.1.2,58.89302316945961,2026-04-05 17h00.27.628045 +0200,
,41,0,41,,,,None,None,,,,,,,,,,,,,41,0,41,0,809.8272151998244,,,,,,,,,,,,,,,,clips/clip_lied_05_sub_0.mp4,audios/clip_lied_05_sub_0.mp3,audiovisual,[],None,None,,,,,,207,B,2026-04-05_17h00.26.305,exp_sofc_final,,2026.1.2,58.89302316945961,2026-04-05 17h00.27.628045 +0200,
,42,0,42,,,,None,None,,,,,,,,,,,,,42,0,42,0,820.0045695002191,,,,,,,,,,,,,,,,clips/clip_holo_04_sub_2.mp4,audios/silence.mp3,visual,"[3.1736721000634134, 7.056721499655396]",None,None,,,,,,207,B,2026-04-05_17h00.26.305,exp_sofc_final,,2026.1.2,58.89302316945961,2026-04-05 17h00.27.628045 +0200,
,43,0,43,,,,None,None,,,,,,,,,,,,,43,0,43,0,832.8791608000174,,,,,,,,,,,,,,,,clips/clip_wurst_21_sub_0.mp4,audios/silence.mp3,visual,[7.296314199920744],None,None,,,,,,207,B,2026-04-05_17h00.26.305,exp_sofc_final,,2026.1.2,58.89302316945961,2026-04-05 17h00.27.628045 +0200,
,44,0,44,,,,None,None,,,,,,,,,,,,,44,0,44,0,844.2050586999394,,,,,,,,,,,,,,,,clips/clip_herz_01_sub_1.mp4,audios/silence.mp3,visual,[6.4749685996212065],None,None,,,,,,207,B,2026-04-05_17h00.26.305,exp_sofc_final,,2026.1.2,58.89302316945961,2026-04-05 17h00.27.628045 +0200,
,45,0,45,,,,None,None,,,,,,,,,,,,,45,0,45,0,855.6467424002476,,,,,,,,,,,,,,,,clips/clip_dampf_05_nosub_2.mp4,audios/silence.mp3,visual,"[3.456551800016314, 8.544691000133753]",None,None,,,,,,207,B,2026-04-05_17h00.26.305,exp_sofc_final,,2026.1.2,58.89302316945961,2026-04-05 17h00.27.628045 +0200,
,46,0,46,,,,None,None,,,,,,,,,,,,,46,0,46,0,865.2189945001155,,,,,,,,,,,,,,,,clips/clip_hund_16_sub_1.mp4,audios/clip_hund_16_sub_1.mp3,audiovisual,[],None,None,,,,,,207,B,2026-04-05_17h00.26.305,exp_sofc_final,,2026.1.2,58.89302316945961,2026-04-05 17h00.27.628045 +0200,
,47,0,47,,,,None,None,,,,,,,,,,,,,47,0,47,0,876.8825290999375,,,,,,,,,,,,,,,,clips/clip_holo_21_sub_1.mp4,audios/clip_holo_21_sub_1.mp3,audiovisual,[4.156658200081438],None,None,,,,,,207,B,2026-04-05_17h00.26.305,exp_sofc_final,,2026.1.2,58.89302316945961,2026-04-05 17h00.27.628045 +0200,
,48,0,48,,,,None,None,,,,,,,,,,,,,48,0,48,0,887.8522744998336,,,,,,,,,,,,,,,,clips/clip_wurst_04_sub_2.mp4,audios/silence.mp3,visual,"[4.101817899849266, 7.191171200014651]",None,None,,,,,,207,B,2026-04-05_17h00.26.305,exp_sofc_final,,2026.1.2,58.89302316945961,2026-04-05 17h00.27.628045 +0200,
,49,0,49,,,,None,None,,,,,,,,,,,,,49,0,49,0,900.2739285002463,,,,,,,,,,,,,,,,clips/clip_herz_11_nosub_0.mp4,audios/silence.mp3,visual,"[1.5099758002907038, 4.864260300062597]",None,None,,,,,,207,B,2026-04-05_17h00.26.305,exp_sofc_final,,2026.1.2,58.89302316945961,2026-04-05 17h00.27.628045 +0200,
,50,0,50,,,,None,None,,,,,,,,,,,,,50,0,50,0,910.431326400023,,,,,,,,,,,,,,,,clips/clip_herz_07_nosub_2.mp4,audios/silence.mp3,visual,"[4.184700599871576, 10.866637600120157]",None,None,,,,,,207,B,2026-04-05_17h00.26.305,exp_sofc_final,,2026.1.2,58.89302316945961,2026-04-05 17h00.27.628045 +0200,
,51,0,51,,,,None,None,,,,,,,,,,,,,51,0,51,0,923.3104280000553,,,,,,,,,,,,,,,,clips/clip_lied_18_sub_2.mp4,audios/clip_lied_18_sub_2.mp3,audiovisual,[5.583806700073183],None,None,,,,,,207,B,2026-04-05_17h00.26.305,exp_sofc_final,,2026.1.2,58.89302316945961,2026-04-05 17h00.27.628045 +0200,
,52,0,52,,,,None,None,,,,,,,,,,,,,52,0,52,0,934.7890778998844,,,,,,,,,,,,,,,,clips/clip_weißt_29_sub_1.mp4,audios/silence.mp3,visual,[6.769374699797481],None,None,,,,,,207,B,2026-04-05_17h00.26.305,exp_sofc_final,,2026.1.2,58.89302316945961,2026-04-05 17h00.27.628045 +0200,
,53,0,53,,,,None,None,,,,,,,,,,,,,53,0,53,0,947.2683206000365,,,,,,,,,,,,,,,,clips/clip_wurst_30_sub_1.mp4,audios/clip_wurst_30_sub_1.mp3,audiovisual,[],None,None,,,,,,207,B,2026-04-05_17h00.26.305,exp_sofc_final,,2026.1.2,58.89302316945961,2026-04-05 17h00.27.628045 +0200,
,54,0,54,,,,None,None,,,,,,,,,,,,,54,0,54,0,958.0785258002579,,,,,,,,,,,,,,,,clips/clip_hund_08_sub_1.mp4,audios/clip_hund_08_sub_1.mp3,audiovisual,[],None,None,,,,,,207,B,2026-04-05_17h00.26.305,exp_sofc_final,,2026.1.2,58.89302316945961,2026-04-05 17h00.27.628045 +0200,
,55,0,55,,,,None,None,,,,,,,,,,,,,55,0,55,0,968.9072532001883,,,,,,,,,,,,,,,,clips/clip_lied_04_sub_0.mp4,audios/silence.mp3,visual,[],None,None,,,,,,207,B,2026-04-05_17h00.26.305,exp_sofc_final,,2026.1.2,58.89302316945961,2026-04-05 17h00.27.628045 +0200,
,56,0,56,,,,None,None,,,,,,,,,,,,,56,0,56,0,980.7514981999993,,,,,,,,,,,,,,,,clips/clip_wurst_03_nosub_1.mp4,audios/clip_wurst_03_nosub_1.mp3,audiovisual,[4.36079220008105],None,None,,,,,,207,B,2026-04-05_17h00.26.305,exp_sofc_final,,2026.1.2,58.89302316945961,2026-04-05 17h00.27.628045 +0200,
,57,0,57,,,,1,None,3.4866307000629604,None,,,,,,,,,,,57,0,57,0,993.5287411999889,,,,,,,,,,,,,,,,clips/clip_claude_10_nosub_0.mp4,audios/clip_claude_10_nosub_0.mp3,audiovisual,[],1,None,1,3.4866307000629604,None,,,207,B,2026-04-05_17h00.26.305,exp_sofc_final,,2026.1.2,58.89302316945961,2026-04-05 17h00.27.628045 +0200,
,58,0,58,,,,None,None,,,,,,,,,,,,,58,0,58,0,1009.1008335999213,,,,,,,,,,,,,,,,clips/clip_lied_16_nosub_2.mp4,audios/clip_lied_16_nosub_2.mp3,audiovisual,"[4.35840420005843, 6.679402700159699]",None,None,,,,,,207,B,2026-04-05_17h00.26.305,exp_sofc_final,,2026.1.2,58.89302316945961,2026-04-05 17h00.27.628045 +0200,
,59,0,59,,,,None,space,,,4.666805100161582,None,,,,,,,,,59,0,59,0,1020.498897000216,,,,,,,,,,,,,,,,clips/clip_wurst_15_nosub_2.mp4,audios/silence.mp3,visual,"[5.313908600248396, 7.87151540024206]",None,space,,,,4.666805100161582,None,207,B,2026-04-05_17h00.26.305,exp_sofc_final,,2026.1.2,58.89302316945961,2026-04-05 17h00.27.628045 +0200,
,60,0,60,,,,None,None,,,,,,,,,,,,,60,0,60,0,1035.4482646002434,,,,,,,,,,,,,,,,clips/clip_claude_21_nosub_1.mp4,audios/silence.mp3,visual,[9.594910900108516],None,None,,,,,,207,B,2026-04-05_17h00.26.305,exp_sofc_final,,2026.1.2,58.89302316945961,2026-04-05 17h00.27.628045 +0200,
,61,0,61,,,,None,None,,,,,,,,,,,,,61,0,61,0,1048.5208900999278,,,,,,,,,,,,,,,,clips/clip_weißt_19_sub_1.mp4,audios/silence.mp3,visual,[],None,None,,,,,,207,B,2026-04-05_17h00.26.305,exp_sofc_final,,2026.1.2,58.89302316945961,2026-04-05 17h00.27.628045 +0200,
,62,0,62,,,,None,None,,,,,,,,,,,,,62,0,62,0,1059.371566799935,,,,,,,,,,,,,,,,clips/clip_lied_06_nosub_1.mp4,audios/silence.mp3,visual,[],None,None,,,,,,207,B,2026-04-05_17h00.26.305,exp_sofc_final,,2026.1.2,58.89302316945961,2026-04-05 17h00.27.628045 +0200,
,63,0,63,,,,None,None,,,,,,,,,,,,,63,0,63,0,1072.8575573000126,,,,,,,,,,,,,,,,clips/clip_holo_09_sub_2.mp4,audios/clip_holo_09_sub_2.mp3,audiovisual,[],None,None,,,,,,207,B,2026-04-05_17h00.26.305,exp_sofc_final,,2026.1.2,58.89302316945961,2026-04-05 17h00.27.628045 +0200,
,64,0,64,,,,4,None,4.705335999839008,None,,,,,,,,,,,64,0,64,0,1085.135801100172,,,,,,,,,,,,,,,,clips/clip_holo_26_sub_2.mp4,audios/clip_holo_26_sub_2.mp3,audiovisual,"[6.2720933998934925, 8.245932999998331]",4,None,4,4.705335999839008,None,,,207,B,2026-04-05_17h00.26.305,exp_sofc_final,,2026.1.2,58.89302316945961,2026-04-05 17h00.27.628045 +0200,
,65,0,65,,,,None,None,,,,,,,,,,,,,65,0,65,0,1099.8582315002568,,,,,,,,,,,,,,,,clips/clip_claude_13_nosub_0.mp4,audios/silence.mp3,visual,[],None,None,,,,,,207,B,2026-04-05_17h00.26.305,exp_sofc_final,,2026.1.2,58.89302316945961,2026-04-05 17h00.27.628045 +0200,
,66,0,66,,,,4,None,4.92075529973954,None,,,,,,,,,,,66,0,66,0,1109.9115212000906,,,,,,,,,,,,,,,,clips/clip_claude_19_sub_0.mp4,audios/silence.mp3,visual,[],4,None,4,4.92075529973954,None,,,207,B,2026-04-05_17h00.26.305,exp_sofc_final,,2026.1.2,58.89302316945961,2026-04-05 17h00.27.628045 +0200,
,67,0,67,,,,None,None,,,,,,,,,,,,,67,0,67,0,1126.0878993999213,,,,,,,,,,,,,,,,clips/clip_herz_17_sub_0.mp4,audios/silence.mp3,visual,[5.6686718999408185],None,None,,,,,,207,B,2026-04-05_17h00.26.305,exp_sofc_final,,2026.1.2,58.89302316945961,2026-04-05 17h00.27.628045 +0200,
,68,0,68,,,,None,None,,,,,,,,,,,,,68,0,68,0,1135.0958798998035,,,,,,,,,,,,,,,,clips/clip_hund_36_sub_2.mp4,audios/silence.mp3,visual,"[2.819403499830514, 6.189489100128412]",None,None,,,,,,207,B,2026-04-05_17h00.26.305,exp_sofc_final,,2026.1.2,58.89302316945961,2026-04-05 17h00.27.628045 +0200,
,69,0,69,,,,None,None,,,,,,,,,,,,,69,0,69,0,1145.1149225002155,,,,,,,,,,,,,,,,clips/clip_lied_20_nosub_2.mp4,audios/clip_lied_20_nosub_2.mp3,audiovisual,"[3.719602100085467, 8.116933799814433]",None,None,,,,,,207,B,2026-04-05_17h00.26.305,exp_sofc_final,,2026.1.2,58.89302316945961,2026-04-05 17h00.27.628045 +0200,
,70,0,70,,,,None,None,,,,,,,,,,,,,70,0,70,0,1156.6887206998654,,,,,,,,,,,,,,,,clips/clip_holo_18_nosub_0.mp4,audios/silence.mp3,visual,"[6.25527450023219, 8.655925800092518]",None,None,,,,,,207,B,2026-04-05_17h00.26.305,exp_sofc_final,,2026.1.2,58.89302316945961,2026-04-05 17h00.27.628045 +0200,
,71,0,71,,,,None,None,,,,,,,,,,,,,71,0,71,0,1169.4183980999514,,,,,,,,,,,,,,,,clips/clip_holo_02_nosub_2.mp4,audios/silence.mp3,visual,"[4.012822200078517, 8.128245300147682]",None,None,,,,,,207,B,2026-04-05_17h00.26.305,exp_sofc_final,,2026.1.2,58.89302316945961,2026-04-05 17h00.27.628045 +0200,
,72,0,72,,,,None,None,,,,,,,,,,,,,72,0,72,0,1181.5031015002169,,,,,,,,,,,,,,,,clips/clip_wurst_18_sub_0.mp4,audios/clip_wurst_18_sub_0.mp3,audiovisual,[],None,None,,,,,,207,B,2026-04-05_17h00.26.305,exp_sofc_final,,2026.1.2,58.89302316945961,2026-04-05 17h00.27.628045 +0200,
,73,0,73,,,,4,None,2.992019400000572,None,,,,,,,,,,,73,0,73,0,1192.2725227000192,,,,,,,,,,,,,,,,clips/clip_weißt_01_nosub_1.mp4,audios/silence.mp3,visual,[5.929313799832016],4,None,4,2.992019400000572,None,,,207,B,2026-04-05_17h00.26.305,exp_sofc_final,,2026.1.2,58.89302316945961,2026-04-05 17h00.27.628045 +0200,
,74,0,74,,,,None,None,,,,,,,,,,,,,74,0,74,0,1207.243008799851,,,,,,,,,,,,,,,,clips/clip_wurst_36_nosub_0.mp4,audios/clip_wurst_36_nosub_0.mp3,audiovisual,[],None,None,,,,,,207,B,2026-04-05_17h00.26.305,exp_sofc_final,,2026.1.2,58.89302316945961,2026-04-05 17h00.27.628045 +0200,
,75,0,75,,,,None,None,,,,,,,,,,,,,75,0,75,0,1217.9140758002177,,,,,,,,,,,,,,,,clips/clip_holo_28_nosub_0.mp4,audios/clip_holo_28_nosub_0.mp3,audiovisual,[],None,None,,,,,,207,B,2026-04-05_17h00.26.305,exp_sofc_final,,2026.1.2,58.89302316945961,2026-04-05 17h00.27.628045 +0200,
,76,0,76,,,,None,None,,,,,,,,,,,,,76,0,76,0,1227.3572948998772,,,,,,,,,,,,,,,,clips/clip_wurst_32_nosub_1.mp4,audios/clip_wurst_32_nosub_1.mp3,audiovisual,[],None,None,,,,,,207,B,2026-04-05_17h00.26.305,exp_sofc_final,,2026.1.2,58.89302316945961,2026-04-05 17h00.27.628045 +0200,
,77,0,77,,,,None,None,,,,,,,,,,,,,77,0,77,0,1238.766435999889,,,,,,,,,,,,,,,,clips/clip_claude_24_sub_1.mp4,audios/clip_claude_24_sub_1.mp3,audiovisual,[6.039975400082767],None,None,,,,,,207,B,2026-04-05_17h00.26.305,exp_sofc_final,,2026.1.2,58.89302316945961,2026-04-05 17h00.27.628045 +0200,
,78,0,78,,,,3,None,4.150993399787694,None,,,,,,,,,,,78,0,78,0,1245.8476173002273,,,,,,,,,,,,,,,,clips/clip_wurst_24_nosub_1.mp4,audios/clip_wurst_24_nosub_1.mp3,audiovisual,[],3,None,3,4.150993399787694,None,,,207,B,2026-04-05_17h00.26.305,exp_sofc_final,,2026.1.2,58.89302316945961,2026-04-05 17h00.27.628045 +0200,
,79,0,79,,,,None,None,,,,,,,,,,,,,79,0,79,0,1262.147268900182,,,,,,,,,,,,,,,,clips/clip_holo_01_sub_1.mp4,audios/clip_holo_01_sub_1.mp3,audiovisual,[4.361575799994171],None,None,,,,,,207,B,2026-04-05_17h00.26.305,exp_sofc_final,,2026.1.2,58.89302316945961,2026-04-05 17h00.27.628045 +0200,
,80,0,80,,,,None,None,,,,,,,,,,,,,80,0,80,0,1272.1728731999174,,,,,,,,,,,,,,,,clips/clip_hund_01_sub_0.mp4,audios/silence.mp3,visual,[],None,None,,,,,,207,B,2026-04-05_17h00.26.305,exp_sofc_final,,2026.1.2,58.89302316945961,2026-04-05 17h00.27.628045 +0200,
,81,0,81,,,,None,None,,,,,,,,,,,,,81,0,81,0,1283.7846018001437,,,,,,,,,,,,,,,,clips/clip_hund_04_nosub_0.mp4,audios/silence.mp3,visual,[],None,None,,,,,,207,B,2026-04-05_17h00.26.305,exp_sofc_final,,2026.1.2,58.89302316945961,2026-04-05 17h00.27.628045 +0200,
,82,0,82,,,,None,None,,,,,,,,,,,,,82,0,82,0,1294.1282552001067,,,,,,,,,,,,,,,,clips/clip_wurst_25_sub_1.mp4,audios/silence.mp3,visual,[],None,None,,,,,,207,B,2026-04-05_17h00.26.305,exp_sofc_final,,2026.1.2,58.89302316945961,2026-04-05 17h00.27.628045 +0200,
,83,0,83,,,,None,None,,,,,,,,,,,,,83,0,83,0,1306.1943903998472,,,,,,,,,,,,,,,,clips/clip_lied_12_sub_0.mp4,audios/silence.mp3,visual,[],None,None,,,,,,207,B,2026-04-05_17h00.26.305,exp_sofc_final,,2026.1.2,58.89302316945961,2026-04-05 17h00.27.628045 +0200,
,84,0,84,,,,None,None,,,,,,,,,,,,,84,0,84,0,1316.094359099865,,,,,,,,,,,,,,,,clips/clip_claude_18_nosub_0.mp4,audios/clip_claude_18_nosub_0.mp3,audiovisual,[],None,None,,,,,,207,B,2026-04-05_17h00.26.305,exp_sofc_final,,2026.1.2,58.89302316945961,2026-04-05 17h00.27.628045 +0200,
,85,0,85,,,,4,None,3.9145626998506486,None,,,,,,,,,,,85,0,85,0,1325.8592401002534,,,,,,,,,,,,,,,,clips/clip_wurst_17_sub_0.mp4,audios/silence.mp3,visual,[],4,None,4,3.9145626998506486,None,,,207,B,2026-04-05_17h00.26.305,exp_sofc_final,,2026.1.2,58.89302316945961,2026-04-05 17h00.27.628045 +0200,
,86,0,86,,,,None,None,,,,,,,,,,,,,86,0,86,0,1338.7134147002362,,,,,,,,,,,,,,,,clips/clip_herz_16_nosub_0.mp4,audios/clip_herz_16_nosub_0.mp3,audiovisual,[],None,None,,,,,,207,B,2026-04-05_17h00.26.305,exp_sofc_final,,2026.1.2,58.89302316945961,2026-04-05 17h00.27.628045 +0200,
,87,0,87,,,,None,None,,,,,,,,,,,,,87,0,87,0,1348.4574160999618,,,,,,,,,,,,,,,,clips/clip_lied_02_nosub_2.mp4,audios/silence.mp3,visual,"[4.066658899653703, 9.476778700016439]",None,None,,,,,,207,B,2026-04-05_17h00.26.305,exp_sofc_final,,2026.1.2,58.89302316945961,2026-04-05 17h00.27.628045 +0200,
,88,0,88,,,,None,None,,,,,,,,,,,,,88,0,88,0,1360.363638299983,,,,,,,,,,,,,,,,clips/clip_hund_22_nosub_1.mp4,audios/clip_hund_22_nosub_1.mp3,audiovisual,[9.06339109968394],None,None,,,,,,207,B,2026-04-05_17h00.26.305,exp_sofc_final,,2026.1.2,58.89302316945961,2026-04-05 17h00.27.628045 +0200,
,89,0,89,,,,None,None,,,,,,,,,,,,,89,0,89,0,1371.1662868000567,,,,,,,,,,,,,,,,clips/clip_hund_10_nosub_0.mp4,audios/clip_hund_10_nosub_0.mp3,audiovisual,[8.462246700190008],None,None,,,,,,207,B,2026-04-05_17h00.26.305,exp_sofc_final,,2026.1.2,58.89302316945961,2026-04-05 17h00.27.628045 +0200,
,90,0,90,,,,None,None,,,,,,,,,,,,,90,0,90,0,1381.547551299911,,,,,,,,,,,,,,,,clips/clip_claude_06_nosub_1.mp4,audios/clip_claude_06_nosub_1.mp3,audiovisual,"[1.3772960999049246, 3.873260300140828]",None,None,,,,,,207,B,2026-04-05_17h00.26.305,exp_sofc_final,,2026.1.2,58.89302316945961,2026-04-05 17h00.27.628045 +0200,
,91,0,91,,,,None,None,,,,,,,,,,,,,91,0,91,0,1394.871574900113,,,,,,,,,,,,,,,,clips/clip_wurst_35_nosub_0.mp4,audios/silence.mp3,visual,[],None,None,,,,,,207,B,2026-04-05_17h00.26.305,exp_sofc_final,,2026.1.2,58.89302316945961,2026-04-05 17h00.27.628045 +0200,
,92,0,92,,,,3,None,3.279880200047046,None,,,,,,,,,,,92,0,92,0,1405.018071600236,,,,,,,,,,,,,,,,clips/clip_wurst_22_sub_0.mp4,audios/clip_wurst_22_sub_0.mp3,audiovisual,[],3,None,3,3.279880200047046,None,,,207,B,2026-04-05_17h00.26.305,exp_sofc_final,,2026.1.2,58.89302316945961,2026-04-05 17h00.27.628045 +0200,
,93,0,93,,,,None,None,,,,,,,,,,,,,93,0,93,0,1420.8455901998095,,,,,,,,,,,,,,,,clips/clip_hund_20_sub_0.mp4,audios/clip_hund_20_sub_0.mp3,audiovisual,[],None,None,,,,,,207,B,2026-04-05_17h00.26.305,exp_sofc_final,,2026.1.2,58.89302316945961,2026-04-05 17h00.27.628045 +0200,
,94,0,94,,,,None,None,,,,,,,,,,,,,94,0,94,0,1433.1875379998237,,,,,,,,,,,,,,,,clips/clip_holo_23_nosub_1.mp4,audios/clip_holo_23_nosub_1.mp3,audiovisual,[],None,None,,,,,,207,B,2026-04-05_17h00.26.305,exp_sofc_final,,2026.1.2,58.89302316945961,2026-04-05 17h00.27.628045 +0200,
,95,0,95,,,,None,None,,,,,,,,,,,,,95,0,95,0,1444.123478199821,,,,,,,,,,,,,,,,clips/clip_wurst_16_nosub_0.mp4,audios/clip_wurst_16_nosub_0.mp3,audiovisual,[],None,None,,,,,,207,B,2026-04-05_17h00.26.305,exp_sofc_final,,2026.1.2,58.89302316945961,2026-04-05 17h00.27.628045 +0200,
,96,0,96,,,,None,None,,,,,,,,,,,,,96,0,96,0,1454.9039154001512,,,,,,,,,,,,,,,,clips/clip_hund_30_sub_0.mp4,audios/silence.mp3,visual,[],None,None,,,,,,207,B,2026-04-05_17h00.26.305,exp_sofc_final,,2026.1.2,58.89302316945961,2026-04-05 17h00.27.628045 +0200,
,97,0,97,,,,None,None,,,,,,,,,,,,,97,0,97,0,1467.7440080000088,,,,,,,,,,,,,,,,clips/clip_wurst_12_nosub_0.mp4,audios/clip_wurst_12_nosub_0.mp3,audiovisual,[],None,None,,,,,,207,B,2026-04-05_17h00.26.305,exp_sofc_final,,2026.1.2,58.89302316945961,2026-04-05 17h00.27.628045 +0200,
,98,0,98,,,,None,None,,,,,,,,,,,,,98,0,98,0,1477.179918000009,,,,,,,,,,,,,,,,clips/clip_claude_03_sub_1.mp4,audios/silence.mp3,visual,[5.075908800121397],None,None,,,,,,207,B,2026-04-05_17h00.26.305,exp_sofc_final,,2026.1.2,58.89302316945961,2026-04-05 17h00.27.628045 +0200,
,99,0,99,,,,4,None,6.005237099714577,None,,,,,,,,,,,99,0,99,0,1489.4982095002197,,,,,,,,,,,,,,,,clips/clip_holo_16_sub_1.mp4,audios/silence.mp3,visual,[10.411273200064898],4,None,4,6.005237099714577,None,,,207,B,2026-04-05_17h00.26.305,exp_sofc_final,,2026.1.2,58.89302316945961,2026-04-05 17h00.27.628045 +0200,
,100,0,100,,,,None,None,,,,,,,,,,,,,100,0,100,0,1508.407424500212,,,,,,,,,,,,,,,,clips/clip_holo_27_nosub_1.mp4,audios/silence.mp3,visual,[5.444523400161415],None,None,,,,,,207,B,2026-04-05_17h00.26.305,exp_sofc_final,,2026.1.2,58.89302316945961,2026-04-05 17h00.27.628045 +0200,
,101,0,101,,,,3,None,3.423919999971986,None,,,,,,,,,,,101,0,101,0,1519.2837379002012,,,,,,,,,,,,,,,,clips/clip_lied_07_nosub_1.mp4,audios/clip_lied_07_nosub_1.mp3,audiovisual,[4.341095000039786],3,None,3,3.423919999971986,None,,,207,B,2026-04-05_17h00.26.305,exp_sofc_final,,2026.1.2,58.89302316945961,2026-04-05 17h00.27.628045 +0200,
,102,0,102,,,,1,None,4.031683899927884,None,,,,,,,,,,,102,0,102,0,1532.6004670998082,,,,,,,,,,,,,,,,clips/clip_hund_18_nosub_1.mp4,audios/clip_hund_18_nosub_1.mp3,audiovisual,[6.867706400342286],1,None,1,4.031683899927884,None,,,207,B,2026-04-05_17h00.26.305,exp_sofc_final,,2026.1.2,58.89302316945961,2026-04-05 17h00.27.628045 +0200,
,103,0,103,,,,None,None,,,,,,,,,,,,,103,0,103,0,1547.5827339999378,,,,,,,,,,,,,,,,clips/clip_weißt_07_nosub_1.mp4,audios/clip_weißt_07_nosub_1.mp3,audiovisual,[3.9263491998426616],None,None,,,,,,207,B,2026-04-05_17h00.26.305,exp_sofc_final,,2026.1.2,58.89302316945961,2026-04-05 17h00.27.628045 +0200,
,104,0,104,,,,None,None,,,,,,,,,,,,,104,0,104,0,1558.0943636000156,,,,,,,,,,,,,,,,clips/clip_weißt_02_nosub_0.mp4,audios/clip_weißt_02_nosub_0.mp3,audiovisual,[],None,None,,,,,,207,B,2026-04-05_17h00.26.305,exp_sofc_final,,2026.1.2,58.89302316945961,2026-04-05 17h00.27.628045 +0200,
,105,0,105,,,,None,None,,,,,,,,,,,,,105,0,105,0,1568.911565499846,,,,,,,,,,,,,,,,clips/clip_herz_03_nosub_2.mp4,audios/silence.mp3,visual,"[4.513979299925268, 11.740366100333631]",None,None,,,,,,207,B,2026-04-05_17h00.26.305,exp_sofc_final,,2026.1.2,58.89302316945961,2026-04-05 17h00.27.628045 +0200,
,106,0,106,,,,None,None,,,,,,,,,,,,,106,0,106,0,1582.1613607998006,,,,,,,,,,,,,,,,clips/clip_dampf_04_sub_1.mp4,audios/clip_dampf_04_sub_1.mp3,audiovisual,[6.933525400236249],None,None,,,,,,207,B,2026-04-05_17h00.26.305,exp_sofc_final,,2026.1.2,58.89302316945961,2026-04-05 17h00.27.628045 +0200,
,107,0,107,,,,None,None,,,,,,,,,,,,,107,0,107,0,1592.5631703999825,,,,,,,,,,,,,,,,clips/clip_herz_09_sub_0.mp4,audios/silence.mp3,visual,[],None,None,,,,,,207,B,2026-04-05_17h00.26.305,exp_sofc_final,,2026.1.2,58.89302316945961,2026-04-05 17h00.27.628045 +0200,
,108,0,108,,,,None,None,,,,,,,,,,,,,108,0,108,0,1604.9685078002512,,,,,,,,,,,,,,,,clips/clip_herz_02_sub_0.mp4,audios/clip_herz_02_sub_0.mp3,audiovisual,[9.082319399807602],None,None,,,,,,207,B,2026-04-05_17h00.26.305,exp_sofc_final,,2026.1.2,58.89302316945961,2026-04-05 17h00.27.628045 +0200,
,109,0,109,,,,None,None,,,,,,,,,,,,,109,0,109,0,1618.1669479999691,,,,,,,,,,,,,,,,clips/clip_hund_05_nosub_0.mp4,audios/clip_hund_05_nosub_0.mp3,audiovisual,[4.100789700169116],None,None,,,,,,207,B,2026-04-05_17h00.26.305,exp_sofc_final,,2026.1.2,58.89302316945961,2026-04-05 17h00.27.628045 +0200,
,110,0,110,,,,None,None,,,,,,,,,,,,,110,0,110,0,1630.0476374998689,,,,,,,,,,,,,,,,clips/clip_weißt_28_nosub_1.mp4,audios/clip_weißt_28_nosub_1.mp3,audiovisual,"[1.8053737003356218, 6.904054299928248]",None,None,,,,,,207,B,2026-04-05_17h00.26.305,exp_sofc_final,,2026.1.2,58.89302316945961,2026-04-05 17h00.27.628045 +0200,
,111,0,111,,,,None,None,,,,,,,,,,,,,111,0,111,0,1640.9672686001286,,,,,,,,,,,,,,,,clips/clip_wurst_20_nosub_0.mp4,audios/clip_wurst_20_nosub_0.mp3,audiovisual,[2.7261855001561344],None,None,,,,,,207,B,2026-04-05_17h00.26.305,exp_sofc_final,,2026.1.2,58.89302316945961,2026-04-05 17h00.27.628045 +0200,
,112,0,112,,,,1,None,3.705385100096464,None,,,,,,,,,,,112,0,112,0,1651.8350924998522,,,,,,,,,,,,,,,,clips/clip_lied_03_nosub_1.mp4,audios/clip_lied_03_nosub_1.mp3,audiovisual,[4.368556099943817],1,None,1,3.705385100096464,None,,,207,B,2026-04-05_17h00.26.305,exp_sofc_final,,2026.1.2,58.89302316945961,2026-04-05 17h00.27.628045 +0200,
,113,0,113,,,,None,None,,,,,,,,,,,,,113,0,113,0,1666.9547327999026,,,,,,,,,,,,,,,,clips/clip_claude_16_sub_1.mp4,audios/clip_claude_16_sub_1.mp3,audiovisual,[8.877144500147551],None,None,,,,,,207,B,2026-04-05_17h00.26.305,exp_sofc_final,,2026.1.2,58.89302316945961,2026-04-05 17h00.27.628045 +0200,
,114,0,114,,,,None,None,,,,,,,,,,,,,114,0,114,0,1678.969837800134,,,,,,,,,,,,,,,,clips/clip_weißt_12_nosub_1.mp4,audios/silence.mp3,visual,[9.018727399874479],None,None,,,,,,207,B,2026-04-05_17h00.26.305,exp_sofc_final,,2026.1.2,58.89302316945961,2026-04-05 17h00.27.628045 +0200,
,115,0,115,,,,None,None,,,,,,,,,,,,,115,0,115,0,1691.7771290000528,,,,,,,,,,,,,,,,clips/clip_weißt_25_sub_1.mp4,audios/silence.mp3,visual,[5.244926600251347],None,None,,,,,,207,B,2026-04-05_17h00.26.305,exp_sofc_final,,2026.1.2,58.89302316945961,2026-04-05 17h00.27.628045 +0200,
,116,0,116,,,,None,None,,,,,,,,,,,,,116,0,116,0,1704.6184148998,,,,,,,,,,,,,,,,clips/clip_lied_14_sub_0.mp4,audios/clip_lied_14_sub_0.mp3,audiovisual,[],None,None,,,,,,207,B,2026-04-05_17h00.26.305,exp_sofc_final,,2026.1.2,58.89302316945961,2026-04-05 17h00.27.628045 +0200,
,117,0,117,,,,None,None,,,,,,,,,,,,,117,0,117,0,1715.1253118999302,,,,,,,,,,,,,,,,clips/clip_wurst_26_sub_1.mp4,audios/clip_wurst_26_sub_1.mp3,audiovisual,[10.298894499894232],None,None,,,,,,207,B,2026-04-05_17h00.26.305,exp_sofc_final,,2026.1.2,58.89302316945961,2026-04-05 17h00.27.628045 +0200,
,118,0,118,,,,None,None,,,,,,,,,,,,,118,0,118,0,1727.9902713000774,,,,,,,,,,,,,,,,clips/clip_holo_05_sub_2.mp4,audios/clip_holo_05_sub_2.mp3,audiovisual,[7.043305600062013],None,None,,,,,,207,B,2026-04-05_17h00.26.305,exp_sofc_final,,2026.1.2,58.89302316945961,2026-04-05 17h00.27.628045 +0200,
,119,0,119,,,,None,space,,,1.3440156001597643,None,,,,,,,,,119,0,119,0,1737.9452134999447,,,,,,,,,,,,,,,,clips/clip_wurst_05_sub_0.mp4,audios/clip_wurst_05_sub_0.mp3,audiovisual,[],None,space,,,,1.3440156001597643,None,207,B,2026-04-05_17h00.26.305,exp_sofc_final,,2026.1.2,58.89302316945961,2026-04-05 17h00.27.628045 +0200,
,120,0,120,,,,None,None,,,,,,,,,,,,,120,0,120,0,1748.7828223998658,,,,,,,,,,,,,,,,clips/clip_claude_09_nosub_2.mp4,audios/silence.mp3,visual,"[4.352434099651873, 8.712042999919504]",None,None,,,,,,207,B,2026-04-05_17h00.26.305,exp_sofc_final,,2026.1.2,58.89302316945961,2026-04-05 17h00.27.628045 +0200,
,121,0,121,,,,None,None,,,,,,,,,,,,,121,0,121,0,1762.238089499995,,,,,,,,,,,,,,,,clips/clip_holo_13_sub_1.mp4,audios/clip_holo_13_sub_1.mp3,audiovisual,"[1.3948745001107454, 4.393991100136191]",None,None,,,,,,207,B,2026-04-05_17h00.26.305,exp_sofc_final,,2026.1.2,58.89302316945961,2026-04-05 17h00.27.628045 +0200,
,122,0,122,,,,None,None,,,,,,,,,,,,,122,0,122,0,1774.9030691999942,,,,,,,,,,,,,,,,clips/clip_claude_11_sub_0.mp4,audios/silence.mp3,visual,[],None,None,,,,,,207,B,2026-04-05_17h00.26.305,exp_sofc_final,,2026.1.2,58.89302316945961,2026-04-05 17h00.27.628045 +0200,
,123,0,123,,,,None,None,,,,,,,,,,,,,123,0,123,0,1785.5578808002174,,,,,,,,,,,,,,,,clips/clip_hund_32_sub_1.mp4,audios/clip_hund_32_sub_1.mp3,audiovisual,"[5.019335200078785, 6.739097999874502]",None,None,,,,,,207,B,2026-04-05_17h00.26.305,exp_sofc_final,,2026.1.2,58.89302316945961,2026-04-05 17h00.27.628045 +0200,
,124,0,124,,,,None,None,,,,,,,,,,,,,124,0,124,0,1796.6584529001266,,,,,,,,,,,,,,,,clips/clip_weißt_16_nosub_0.mp4,audios/silence.mp3,visual,[0.5347071997821331],None,None,,,,,,207,B,2026-04-05_17h00.26.305,exp_sofc_final,,2026.1.2,58.89302316945961,2026-04-05 17h00.27.628045 +0200,
,125,0,125,,,,None,None,,,,,,,,,,,,,125,0,125,0,1808.106626899913,,,,,,,,,,,,,,,,clips/clip_claude_29_sub_0.mp4,audios/clip_claude_29_sub_0.mp3,audiovisual,[2.6545221996493638],None,None,,,,,,207,B,2026-04-05_17h00.26.305,exp_sofc_final,,2026.1.2,58.89302316945961,2026-04-05 17h00.27.628045 +0200,
,126,0,126,,,,None,None,,,,,,,,,,,,,126,0,126,0,1819.6636032001115,,,,,,,,,,,,,,,,clips/clip_weißt_15_sub_1.mp4,audios/clip_weißt_15_sub_1.mp3,audiovisual,[4.864418300334364],None,None,,,,,,207,B,2026-04-05_17h00.26.305,exp_sofc_final,,2026.1.2,58.89302316945961,2026-04-05 17h00.27.628045 +0200,
,127,0,127,,,,None,None,,,,,,,,,,,,,127,0,127,0,1831.3627785001881,,,,,,,,,,,,,,,,clips/clip_claude_14_nosub_0.mp4,audios/clip_claude_14_nosub_0.mp3,audiovisual,"[3.0034842998720706, 8.723831200040877]",None,None,,,,,,207,B,2026-04-05_17h00.26.305,exp_sofc_final,,2026.1.2,58.89302316945961,2026-04-05 17h00.27.628045 +0200,
,128,0,128,,,,4,None,2.697973399888724,None,,,,,,,,,,,128,0,128,0,1843.7781258001924,,,,,,,,,,,,,,,,clips/clip_lied_19_nosub_1.mp4,audios/silence.mp3,visual,[5.411518900189549],4,None,4,2.697973399888724,None,,,207,B,2026-04-05_17h00.26.305,exp_sofc_final,,2026.1.2,58.89302316945961,2026-04-05 17h00.27.628045 +0200,
,129,0,129,,,,None,None,,,,,,,,,,,,,129,0,129,0,1858.7907743002288,,,,,,,,,,,,,,,,clips/clip_weißt_30_sub_2.mp4,audios/clip_weißt_30_sub_2.mp3,audiovisual,"[5.115248499903828, 12.017813100013882]",None,None,,,,,,207,B,2026-04-05_17h00.26.305,exp_sofc_final,,2026.1.2,58.89302316945961,2026-04-05 17h00.27.628045 +0200,
,130,0,130,,,,None,None,,,,,,,,,,,,,130,0,130,0,1871.9433292001486,,,,,,,,,,,,,,,,clips/clip_hund_12_sub_1.mp4,audios/clip_hund_12_sub_1.mp3,audiovisual,[9.83201520005241],None,None,,,,,,207,B,2026-04-05_17h00.26.305,exp_sofc_final,,2026.1.2,58.89302316945961,2026-04-05 17h00.27.628045 +0200,
,131,0,131,,,,None,None,,,,,,,,,,,,,131,0,131,0,1884.0160921001807,,,,,,,,,,,,,,,,clips/clip_wurst_06_nosub_2.mp4,audios/silence.mp3,visual,"[1.4824748001992702, 2.9264731998555362, 8.131060699932277]",None,None,,,,,,207,B,2026-04-05_17h00.26.305,exp_sofc_final,,2026.1.2,58.89302316945961,2026-04-05 17h00.27.628045 +0200,
,132,0,132,,,,None,None,,,,,,,,,,,,,132,0,132,0,1895.891463200096,,,,,,,,,,,,,,,,clips/clip_wurst_13_sub_0.mp4,audios/silence.mp3,visual,[],None,None,,,,,,207,B,2026-04-05_17h00.26.305,exp_sofc_final,,2026.1.2,58.89302316945961,2026-04-05 17h00.27.628045 +0200,
,133,0,133,,,,2,None,3.018294799607247,None,,,,,,,,,,,133,0,133,0,1906.3572297999635,,,,,,,,,,,,,,,,clips/clip_dampf_06_nosub_2.mp4,audios/clip_dampf_06_nosub_2.mp3,audiovisual,[],2,None,2,3.018294799607247,None,,,207,B,2026-04-05_17h00.26.305,exp_sofc_final,,2026.1.2,58.89302316945961,2026-04-05 17h00.27.628045 +0200,
,134,0,134,,,,None,None,,,,,,,,,,,,,134,0,134,0,1919.2595879002474,,,,,,,,,,,,,,,,clips/clip_dampf_02_nosub_1.mp4,audios/clip_dampf_02_nosub_1.mp3,audiovisual,[5.298890899866819],None,None,,,,,,207,B,2026-04-05_17h00.26.305,exp_sofc_final,,2026.1.2,58.89302316945961,2026-04-05 17h00.27.628045 +0200,
,135,0,135,,,,3,None,4.174034399911761,None,,,,,,,,,,,135,0,135,0,1929.4275246998295,,,,,,,,,,,,,,,,clips/clip_weißt_23_nosub_1.mp4,audios/clip_weißt_23_nosub_1.mp3,audiovisual,[8.358485299628228],3,None,3,4.174034399911761,None,,,207,B,2026-04-05_17h00.26.305,exp_sofc_final,,2026.1.2,58.89302316945961,2026-04-05 17h00.27.628045 +0200,
,136,0,136,,,,None,None,,,,,,,,,,,,,136,0,136,0,1945.827756300103,,,,,,,,,,,,,,,,clips/clip_hund_09_nosub_2.mp4,audios/silence.mp3,visual,"[5.410653399769217, 10.46695759985596]",None,None,,,,,,207,B,2026-04-05_17h00.26.305,exp_sofc_final,,2026.1.2,58.89302316945961,2026-04-05 17h00.27.628045 +0200,
,137,0,137,,,,None,None,,,,,,,,,,,,,137,0,137,0,1958.2524251998402,,,,,,,,,,,,,,,,clips/clip_lied_08_sub_1.mp4,audios/silence.mp3,visual,[7.547742099966854],None,None,,,,,,207,B,2026-04-05_17h00.26.305,exp_sofc_final,,2026.1.2,58.89302316945961,2026-04-05 17h00.27.628045 +0200,
,138,0,138,,,,None,None,,,,,,,,,,,,,138,0,138,0,1968.2141342000104,,,,,,,,,,,,,,,,clips/clip_claude_12_sub_0.mp4,audios/clip_claude_12_sub_0.mp3,audiovisual,[],None,None,,,,,,207,B,2026-04-05_17h00.26.305,exp_sofc_final,,2026.1.2,58.89302316945961,2026-04-05 17h00.27.628045 +0200,
,139,0,139,,,,None,None,,,,,,,,,,,,,139,0,139,0,1978.2366766999476,,,,,,,,,,,,,,,,clips/clip_holo_22_nosub_1.mp4,audios/silence.mp3,visual,[9.174608699977398],None,None,,,,,,207,B,2026-04-05_17h00.26.305,exp_sofc_final,,2026.1.2,58.89302316945961,2026-04-05 17h00.27.628045 +0200,
,140,0,140,,,,3,None,2.9753855001181364,None,,,,,,,,,,,140,0,140,0,1988.2844444001094,,,,,,,,,,,,,,,,clips/clip_holo_15_nosub_0.mp4,audios/clip_holo_15_nosub_0.mp3,audiovisual,[6.140729600097984],3,None,3,2.9753855001181364,None,,,207,B,2026-04-05_17h00.26.305,exp_sofc_final,,2026.1.2,58.89302316945961,2026-04-05 17h00.27.628045 +0200,
,141,0,141,,,,None,None,,,,,,,,,,,,,141,0,141,0,2001.29765520012,,,,,,,,,,,,,,,,clips/clip_dampf_03_sub_1.mp4,audios/silence.mp3,visual,[7.609437299892306],None,None,,,,,,207,B,2026-04-05_17h00.26.305,exp_sofc_final,,2026.1.2,58.89302316945961,2026-04-05 17h00.27.628045 +0200,
,142,0,142,,,,None,None,,,,,,,,,,,,,142,0,142,0,2009.749615199864,,,,,,,,,,,,,,,,clips/clip_herz_10_sub_0.mp4,audios/clip_herz_10_sub_0.mp3,audiovisual,[],None,None,,,,,,207,B,2026-04-05_17h00.26.305,exp_sofc_final,,2026.1.2,58.89302316945961,2026-04-05 17h00.27.628045 +0200,
,143,0,143,,,,None,None,,,,,,,,,,,,,143,0,143,0,2020.5708285002038,,,,,,,,,,,,,,,,clips/clip_weißt_06_nosub_0.mp4,audios/silence.mp3,visual,[5.557134199887514],None,None,,,,,,207,B,2026-04-05_17h00.26.305,exp_sofc_final,,2026.1.2,58.89302316945961,2026-04-05 17h00.27.628045 +0200,
,144,0,144,,,,2,None,4.956382700242102,None,,,,,,,,,,,144,0,144,0,2031.7585506998003,,,,,,,,,,,,,,,,clips/clip_claude_07_sub_0.mp4,audios/silence.mp3,visual,[],2,None,2,4.956382700242102,None,,,207,B,2026-04-05_17h00.26.305,exp_sofc_final,,2026.1.2,58.89302316945961,2026-04-05 17h00.27.628045 +0200,
,145,0,145,,,,None,None,,,,,,,,,,,,,145,0,145,0,2047.616732600145,,,,,,,,,,,,,,,,clips/clip_wurst_34_sub_2.mp4,audios/clip_wurst_34_sub_2.mp3,audiovisual,"[4.198563300073147, 6.12588270008564]",None,None,,,,,,207,B,2026-04-05_17h00.26.305,exp_sofc_final,,2026.1.2,58.89302316945961,2026-04-05 17h00.27.628045 +0200,
,146,0,146,,,,None,None,,,,,,,,,,,,,146,0,146,0,2056.8960615000688,,,,,,,,,,,,,,,,clips/clip_wurst_29_sub_1.mp4,audios/silence.mp3,visual,[1.419795200228691],None,None,,,,,,207,B,2026-04-05_17h00.26.305,exp_sofc_final,,2026.1.2,58.89302316945961,2026-04-05 17h00.27.628045 +0200,
,147,0,147,,,,,,,,,,,,,,,,,,147,0,147,0,2069.7793759000488,,,,,,,,,,,,,,,,clips/clip_holo_11_nosub_2.mp4,audios/clip_holo_11_nosub_2.mp3,audiovisual,,,,,,,,,,,,,,,,,
