instruction_text;thisN;thisTrialN;thisRepN;prac_attention_resp.keys;prac_attention_resp.rt;prac_attention_resp.duration;exp_atttention_resp.keys;exp_pause_resp.keys;exp_atttention_resp.rt;exp_atttention_resp.duration;exp_pause_resp.rt;exp_pause_resp.duration;instruction_trial.thisRepN;instruction_trial.thisTrialN;instruction_trial.thisN;instruction_trial.thisIndex;practice_trials.thisRepN;practice_trials.thisTrialN;practice_trials.thisN;practice_trials.thisIndex;experiment_trials.thisRepN;experiment_trials.thisTrialN;experiment_trials.thisN;experiment_trials.thisIndex;thisRow.t;notes;piloting;assigned_ls_group;slider_informed_consent.response;Practice_clip_name;Practice_video_used;Practice_audio_used;Practice_modality;Practice_subtitles;Practice_attention_check;Practice_all_cut_rts;practice_trials.prac_attention_resp.keys;Practice_correct_key_required;practice_trials.prac_attention_resp.rt;practice_trials.prac_attention_resp.duration;video_used;audio_used;condition_modality;all_cut_rts;experiment_trials.exp_atttention_resp.keys;experiment_trials.exp_pause_resp.keys;correct_key_required;experiment_trials.exp_atttention_resp.rt;experiment_trials.exp_atttention_resp.duration;experiment_trials.exp_pause_resp.rt;experiment_trials.exp_pause_resp.duration;participant;session;date;expName;expVersion;psychopyVersion;frameRate;expStart
Einverständniserklärung;;;;;;;;;;;;;;;;;;;;;;;;;;;;;;;;;;;;;;;;;;;;;;;;;;;;;;;;;;;
;;;;;;;;;;;;;;;;;;;;;;;;;;;;;;;;;;;;;;;;;;;;;;;;;;;;208;B;2026-04-05_17h54.40.576;exp_sofc_final;;02.01.2026;61.009.983.636.102.800;2026-04-05 17h54.41.743969 +0200
;0;0;0;None;;;;;;;;;;;;;0;0;0;0;;;;;12.466.042.750.002.800;;;;;clip_weißt_05_sub_0;clips/clip_weißt_05_sub_0.mp4;audios/clip_weißt_05_sub_0.mp3;audiovisual;sub;False;[];None;;;;;;;;;;;;;;;208;B;2026-04-05_17h54.40.576;exp_sofc_final;;02.01.2026;61.009.983.636.102.800;2026-04-05 17h54.41.743969 +0200
;1;0;1;None;;;;;;;;;;;;;1;0;1;0;;;;;13.508.266.209.997.200;;;;;clip_weißt_09_sub_1;clips/clip_weißt_09_sub_1.mp4;audios/silence.mp3;visual;sub;False;[0.6079337997362018, 8.71469740010798];None;;;;;;;;;;;;;;;208;B;2026-04-05_17h54.40.576;exp_sofc_final;;02.01.2026;61.009.983.636.102.800;2026-04-05 17h54.41.743969 +0200
;2;0;2;2;4.530.656.000.133.600;None;;;;;;;;;;;2;0;2;0;;;;;1.449.335.534.996.350;;;;;clip_weißt_21_nosub_0;clips/clip_weißt_21_nosub_0.mp4;audios/silence.mp3;visual;nosub;True;[];2;2;4.530.656.000.133.600;None;;;;;;;;;;;;208;B;2026-04-05_17h54.40.576;exp_sofc_final;;02.01.2026;61.009.983.636.102.800;2026-04-05 17h54.41.743969 +0200
;3;0;3;None;;;;;;;;;;;;;3;0;3;0;;;;;1.605.225.054.998.880;;;;;clip_wurst_09_sub_1;clips/clip_wurst_09_sub_1.mp4;audios/clip_wurst_09_sub_1.mp3;audiovisual;sub;False;[5.386884400155395];None;;;;;;;;;;;;;;;208;B;2026-04-05_17h54.40.576;exp_sofc_final;;02.01.2026;61.009.983.636.102.800;2026-04-05 17h54.41.743969 +0200
;4;0;4;4;5.205.095.699.988.300;None;;;;;;;;;;;4;0;4;0;;;;;17.257.342.449.994.700;;;;;clip_hund_31_sub_0;clips/clip_hund_31_sub_0.mp4;audios/silence.mp3;visual;sub;True;[3.9572444995865226];4;4;5.205.095.699.988.300;None;;;;;;;;;;;;208;B;2026-04-05_17h54.40.576;exp_sofc_final;;02.01.2026;61.009.983.636.102.800;2026-04-05 17h54.41.743969 +0200
;5;0;5;3;6.633.019.899.949.430;None;;;;;;;;;;;5;0;5;0;;;;;18.713.264.859.979.900;;;;;clip_hund_06_nosub_0;clips/clip_hund_06_nosub_0.mp4;audios/clip_hund_06_nosub_0.mp3;audiovisual;nosub;True;[];3;4;6.633.019.899.949.430;None;;;;;;;;;;;;208;B;2026-04-05_17h54.40.576;exp_sofc_final;;02.01.2026;61.009.983.636.102.800;2026-04-05 17h54.41.743969 +0200
;6;0;6;None;;;;;;;;;;;;;6;0;6;0;;;;;20.547.027.499.973.700;;;;;clip_weißt_18_nosub_1;clips/clip_weißt_18_nosub_1.mp4;audios/silence.mp3;visual;nosub;False;[6.8733926001004875];None;;;;;;;;;;;;;;;208;B;2026-04-05_17h54.40.576;exp_sofc_final;;02.01.2026;61.009.983.636.102.800;2026-04-05 17h54.41.743969 +0200
;7;0;7;None;;;;;;;;;;;;;7;0;7;0;;;;;2.187.232.015.999.030;;;;;clip_hund_25_sub_1;clips/clip_hund_25_sub_1.mp4;audios/silence.mp3;visual;sub;False;[6.519233499653637];None;;;;;;;;;;;;;;;208;B;2026-04-05_17h54.40.576;exp_sofc_final;;02.01.2026;61.009.983.636.102.800;2026-04-05 17h54.41.743969 +0200
;8;0;8;None;;;;;;;;;;;;;8;0;8;0;;;;;22.769.463.739.963.200;;;;;clip_hund_28_nosub_0;clips/clip_hund_28_nosub_0.mp4;audios/clip_hund_28_nosub_0.mp3;audiovisual;nosub;False;[];None;;;;;;;;;;;;;;;208;B;2026-04-05_17h54.40.576;exp_sofc_final;;02.01.2026;61.009.983.636.102.800;2026-04-05 17h54.41.743969 +0200
;9;0;9;None;;;;;;;;;;;;;9;0;9;0;;;;;23.837.309.779.971.800;;;;;clip_hund_02_sub_1;clips/clip_hund_02_sub_1.mp4;audios/clip_hund_02_sub_1.mp3;audiovisual;sub;False;[9.568317499943078];None;;;;;;;;;;;;;;;208;B;2026-04-05_17h54.40.576;exp_sofc_final;;02.01.2026;61.009.983.636.102.800;2026-04-05 17h54.41.743969 +0200
;10;0;10;None;;;;;;;;;;;;;10;0;10;0;;;;;24.912.290.369.998.600;;;;;clip_weißt_10_nosub_1;clips/clip_weißt_10_nosub_1.mp4;audios/clip_weißt_10_nosub_1.mp3;audiovisual;nosub;False;[5.72069439990446];None;;;;;;;;;;;;;;;208;B;2026-04-05_17h54.40.576;exp_sofc_final;;02.01.2026;61.009.983.636.102.800;2026-04-05 17h54.41.743969 +0200
;11;0;11;3;4.064.276.400.022.200;None;;;;;;;;;;;11;0;11;0;;;;;26.096.405.929.978.900;;;;;clip_hund_26_sub_1;clips/clip_hund_26_sub_1.mp4;audios/silence.mp3;visual;sub;True;[0.4636602997779846];3;3;4.064.276.400.022.200;None;;;;;;;;;;;;208;B;2026-04-05_17h54.40.576;exp_sofc_final;;02.01.2026;61.009.983.636.102.800;2026-04-05 17h54.41.743969 +0200
;;;;;;;;;;;;;;;;;;;;;;;;;;;;;;;;;;;;;;;;;;;;;;;;;;;;208;B;2026-04-05_17h54.40.576;exp_sofc_final;;02.01.2026;61.009.983.636.102.800;2026-04-05 17h54.41.743969 +0200
;0;0;0;;;;None;None;;;;;;;;;;;;;0;0;0;0;27.920.774.600.002.900;;;;;;;;;;;;;;;;clips/clip_claude_05_nosub_2.mp4;audios/silence.mp3;visual;[4.532209999859333];None;None;;;;;;208;B;2026-04-05_17h54.40.576;exp_sofc_final;;02.01.2026;61.009.983.636.102.800;2026-04-05 17h54.41.743969 +0200
;1;0;1;;;;None;None;;;;;;;;;;;;;1;0;1;0;2.913.539.417.996.070;;;;;;;;;;;;;;;;clips/clip_holo_07_nosub_0.mp4;audios/clip_holo_07_nosub_0.mp3;audiovisual;[];None;None;;;;;;208;B;2026-04-05_17h54.40.576;exp_sofc_final;;02.01.2026;61.009.983.636.102.800;2026-04-05 17h54.41.743969 +0200
;2;0;2;;;;None;None;;;;;;;;;;;;;2;0;2;0;30.158.125.899.964.900;;;;;;;;;;;;;;;;clips/clip_holo_20_sub_1.mp4;audios/silence.mp3;visual;[];None;None;;;;;;208;B;2026-04-05_17h54.40.576;exp_sofc_final;;02.01.2026;61.009.983.636.102.800;2026-04-05 17h54.41.743969 +0200
;3;0;3;;;;None;None;;;;;;;;;;;;;3;0;3;0;311.804.863.399.826;;;;;;;;;;;;;;;;clips/clip_wurst_31_nosub_1.mp4;audios/silence.mp3;visual;[];None;None;;;;;;208;B;2026-04-05_17h54.40.576;exp_sofc_final;;02.01.2026;61.009.983.636.102.800;2026-04-05 17h54.41.743969 +0200
;4;0;4;;;;1;None;26.179.039.999.842.600;None;;;;;;;;;;;4;0;4;0;32.367.481.889.994.800;;;;;;;;;;;;;;;;clips/clip_wurst_13_sub_0.mp4;audios/silence.mp3;visual;[];1;None;1;26.179.039.999.842.600;None;;;208;B;2026-04-05_17h54.40.576;exp_sofc_final;;02.01.2026;61.009.983.636.102.800;2026-04-05 17h54.41.743969 +0200
;5;0;5;;;;None;None;;;;;;;;;;;;;5;0;5;0;3.368.346.082.000.060;;;;;;;;;;;;;;;;clips/clip_hund_29_nosub_0.mp4;audios/clip_hund_29_nosub_0.mp3;audiovisual;[10.543656200170517];None;None;;;;;;208;B;2026-04-05_17h54.40.576;exp_sofc_final;;02.01.2026;61.009.983.636.102.800;2026-04-05 17h54.41.743969 +0200
;6;0;6;;;;1;None;4.447.912.500.239.900;None;;;;;;;;;;;6;0;6;0;3.490.605.790.000.400;;;;;;;;;;;;;;;;clips/clip_hund_10_nosub_0.mp4;audios/clip_hund_10_nosub_0.mp3;audiovisual;[8.112512399908155];1;None;1;4.447.912.500.239.900;None;;;208;B;2026-04-05_17h54.40.576;exp_sofc_final;;02.01.2026;61.009.983.636.102.800;2026-04-05 17h54.41.743969 +0200
;7;0;7;;;;None;None;;;;;;;;;;;;;7;0;7;0;36.384.831.180.004.400;;;;;;;;;;;;;;;;clips/clip_holo_24_sub_2.mp4;audios/silence.mp3;visual;[7.026356399990618, 9.96167130023241];None;None;;;;;;208;B;2026-04-05_17h54.40.576;exp_sofc_final;;02.01.2026;61.009.983.636.102.800;2026-04-05 17h54.41.743969 +0200
;8;0;8;;;;None;None;;;;;;;;;;;;;8;0;8;0;37.449.174.389.988.100;;;;;;;;;;;;;;;;clips/clip_hund_07_sub_1.mp4;audios/silence.mp3;visual;[6.572710399981588];None;None;;;;;;208;B;2026-04-05_17h54.40.576;exp_sofc_final;;02.01.2026;61.009.983.636.102.800;2026-04-05 17h54.41.743969 +0200
;9;0;9;;;;None;None;;;;;;;;;;;;;9;0;9;0;3.871.380.127.999;;;;;;;;;;;;;;;;clips/clip_wurst_26_sub_1.mp4;audios/clip_wurst_26_sub_1.mp3;audiovisual;[10.098865699954331];None;None;;;;;;208;B;2026-04-05_17h54.40.576;exp_sofc_final;;02.01.2026;61.009.983.636.102.800;2026-04-05 17h54.41.743969 +0200
;10;0;10;;;;None;None;;;;;;;;;;;;;10;0;10;0;3.997.858.435.995.870;;;;;;;;;;;;;;;;clips/clip_hund_30_sub_0.mp4;audios/silence.mp3;visual;[];None;None;;;;;;208;B;2026-04-05_17h54.40.576;exp_sofc_final;;02.01.2026;61.009.983.636.102.800;2026-04-05 17h54.41.743969 +0200
;11;0;11;;;;None;None;;;;;;;;;;;;;11;0;11;0;4.126.654.778.998.340;;;;;;;;;;;;;;;;clips/clip_wurst_23_nosub_2.mp4;audios/silence.mp3;visual;[3.7013320000842214, 8.165458899922669];None;None;;;;;;208;B;2026-04-05_17h54.40.576;exp_sofc_final;;02.01.2026;61.009.983.636.102.800;2026-04-05 17h54.41.743969 +0200
;12;0;12;;;;None;None;;;;;;;;;;;;;12;0;12;0;423.983.239.099.849;;;;;;;;;;;;;;;;clips/clip_claude_15_sub_0.mp4;audios/silence.mp3;visual;[];None;None;;;;;;208;B;2026-04-05_17h54.40.576;exp_sofc_final;;02.01.2026;61.009.983.636.102.800;2026-04-05 17h54.41.743969 +0200
;13;0;13;;;;None;None;;;;;;;;;;;;;13;0;13;0;43.687.724.939.966.500;;;;;;;;;;;;;;;;clips/clip_lied_04_sub_0.mp4;audios/silence.mp3;visual;[];None;None;;;;;;208;B;2026-04-05_17h54.40.576;exp_sofc_final;;02.01.2026;61.009.983.636.102.800;2026-04-05 17h54.41.743969 +0200
;14;0;14;;;;None;None;;;;;;;;;;;;;14;0;14;0;44.870.877.219.969.400;;;;;;;;;;;;;;;;clips/clip_herz_10_sub_0.mp4;audios/clip_herz_10_sub_0.mp3;audiovisual;[0.5072467001155019];None;None;;;;;;208;B;2026-04-05_17h54.40.576;exp_sofc_final;;02.01.2026;61.009.983.636.102.800;2026-04-05 17h54.41.743969 +0200
;15;0;15;;;;None;None;;;;;;;;;;;;;15;0;15;0;459.601.034.599.822;;;;;;;;;;;;;;;;clips/clip_herz_12_nosub_0.mp4;audios/clip_herz_12_nosub_0.mp3;audiovisual;[6.058775000274181];None;None;;;;;;208;B;2026-04-05_17h54.40.576;exp_sofc_final;;02.01.2026;61.009.983.636.102.800;2026-04-05 17h54.41.743969 +0200
;16;0;16;;;;None;None;;;;;;;;;;;;;16;0;16;0;4.694.860.356.999.560;;;;;;;;;;;;;;;;clips/clip_dampf_03_sub_1.mp4;audios/silence.mp3;visual;[7.638985600322485];None;None;;;;;;208;B;2026-04-05_17h54.40.576;exp_sofc_final;;02.01.2026;61.009.983.636.102.800;2026-04-05 17h54.41.743969 +0200
;17;0;17;;;;None;None;;;;;;;;;;;;;17;0;17;0;4.779.039.800.995.960;;;;;;;;;;;;;;;;clips/clip_weißt_29_sub_1.mp4;audios/silence.mp3;visual;[6.989664100110531];None;None;;;;;;208;B;2026-04-05_17h54.40.576;exp_sofc_final;;02.01.2026;61.009.983.636.102.800;2026-04-05 17h54.41.743969 +0200
;18;0;18;;;;None;None;;;;;;;;;;;;;18;0;18;0;4.903.904.702.998.690;;;;;;;;;;;;;;;;clips/clip_claude_06_nosub_1.mp4;audios/clip_claude_06_nosub_1.mp3;audiovisual;[4.332101100124419];None;None;;;;;;208;B;2026-04-05_17h54.40.576;exp_sofc_final;;02.01.2026;61.009.983.636.102.800;2026-04-05 17h54.41.743969 +0200
;19;0;19;;;;None;None;;;;;;;;;;;;;19;0;19;0;5.038.264.746.996.570;;;;;;;;;;;;;;;;clips/clip_wurst_14_sub_1.mp4;audios/clip_wurst_14_sub_1.mp3;audiovisual;[7.833594100084156];None;None;;;;;;208;B;2026-04-05_17h54.40.576;exp_sofc_final;;02.01.2026;61.009.983.636.102.800;2026-04-05 17h54.41.743969 +0200
;20;0;20;;;;None;None;;;;;;;;;;;;;20;0;20;0;5.146.254.707.998.590;;;;;;;;;;;;;;;;clips/clip_lied_06_nosub_1.mp4;audios/silence.mp3;visual;[];None;None;;;;;;208;B;2026-04-05_17h54.40.576;exp_sofc_final;;02.01.2026;61.009.983.636.102.800;2026-04-05 17h54.41.743969 +0200
;21;0;21;;;;None;None;;;;;;;;;;;;;21;0;21;0;52.808.881.559.968;;;;;;;;;;;;;;;;clips/clip_holo_01_sub_1.mp4;audios/clip_holo_01_sub_1.mp3;audiovisual;[];None;None;;;;;;208;B;2026-04-05_17h54.40.576;exp_sofc_final;;02.01.2026;61.009.983.636.102.800;2026-04-05 17h54.41.743969 +0200
;22;0;22;;;;None;None;;;;;;;;;;;;;22;0;22;0;5.380.921.682.999.460;;;;;;;;;;;;;;;;clips/clip_hund_23_sub_1.mp4;audios/silence.mp3;visual;[];None;None;;;;;;208;B;2026-04-05_17h54.40.576;exp_sofc_final;;02.01.2026;61.009.983.636.102.800;2026-04-05 17h54.41.743969 +0200
;23;0;23;;;;None;None;;;;;;;;;;;;;23;0;23;0;5.498.512.377.999.720;;;;;;;;;;;;;;;;clips/clip_dampf_01_nosub_0.mp4;audios/silence.mp3;visual;[];None;None;;;;;;208;B;2026-04-05_17h54.40.576;exp_sofc_final;;02.01.2026;61.009.983.636.102.800;2026-04-05 17h54.41.743969 +0200
;24;0;24;;;;None;None;;;;;;;;;;;;;24;0;24;0;5.603.598.789.996.460;;;;;;;;;;;;;;;;clips/clip_wurst_11_nosub_0.mp4;audios/silence.mp3;visual;[];None;None;;;;;;208;B;2026-04-05_17h54.40.576;exp_sofc_final;;02.01.2026;61.009.983.636.102.800;2026-04-05 17h54.41.743969 +0200
;25;0;25;;;;None;None;;;;;;;;;;;;;25;0;25;0;5.729.905.454.996.040;;;;;;;;;;;;;;;;clips/clip_herz_13_sub_0.mp4;audios/silence.mp3;visual;[7.845094399992377];None;None;;;;;;208;B;2026-04-05_17h54.40.576;exp_sofc_final;;02.01.2026;61.009.983.636.102.800;2026-04-05 17h54.41.743969 +0200
;26;0;26;;;;4;None;5.916.144.900.023.930;None;;;;;;;;;;;26;0;26;0;585.036.396.399.606;;;;;;;;;;;;;;;;clips/clip_wurst_32_nosub_1.mp4;audios/clip_wurst_32_nosub_1.mp3;audiovisual;[7.371518999803811];4;None;4;5.916.144.900.023.930;None;;;208;B;2026-04-05_17h54.40.576;exp_sofc_final;;02.01.2026;61.009.983.636.102.800;2026-04-05 17h54.41.743969 +0200
;27;0;27;;;;None;None;;;;;;;;;;;;;27;0;27;0;602.457.697.799.895;;;;;;;;;;;;;;;;clips/clip_claude_11_sub_0.mp4;audios/silence.mp3;visual;[];None;None;;;;;;208;B;2026-04-05_17h54.40.576;exp_sofc_final;;02.01.2026;61.009.983.636.102.800;2026-04-05 17h54.41.743969 +0200
;28;0;28;;;;None;None;;;;;;;;;;;;;28;0;28;0;6.134.029.171.997.680;;;;;;;;;;;;;;;;clips/clip_hund_24_sub_1.mp4;audios/clip_hund_24_sub_1.mp3;audiovisual;[8.171011799946427];None;None;;;;;;208;B;2026-04-05_17h54.40.576;exp_sofc_final;;02.01.2026;61.009.983.636.102.800;2026-04-05 17h54.41.743969 +0200
;29;0;29;;;;None;None;;;;;;;;;;;;;29;0;29;0;6.261.802.902.999.330;;;;;;;;;;;;;;;;clips/clip_hund_14_nosub_2.mp4;audios/clip_hund_14_nosub_2.mp3;audiovisual;[5.80924340011552];None;None;;;;;;208;B;2026-04-05_17h54.40.576;exp_sofc_final;;02.01.2026;61.009.983.636.102.800;2026-04-05 17h54.41.743969 +0200
;30;0;30;;;;None;None;;;;;;;;;;;;;30;0;30;0;6.368.956.849.998.790;;;;;;;;;;;;;;;;clips/clip_dampf_04_sub_1.mp4;audios/clip_dampf_04_sub_1.mp3;audiovisual;[5.1280276998877525];None;None;;;;;;208;B;2026-04-05_17h54.40.576;exp_sofc_final;;02.01.2026;61.009.983.636.102.800;2026-04-05 17h54.41.743969 +0200
;31;0;31;;;;None;None;;;;;;;;;;;;;31;0;31;0;6.473.186.971.000.390;;;;;;;;;;;;;;;;clips/clip_claude_21_nosub_1.mp4;audios/silence.mp3;visual;[9.867129299789667];None;None;;;;;;208;B;2026-04-05_17h54.40.576;exp_sofc_final;;02.01.2026;61.009.983.636.102.800;2026-04-05 17h54.41.743969 +0200
;32;0;32;;;;2;None;3.807.358.100.079;None;;;;;;;;;;;32;0;32;0;6.603.948.780.996.720;;;;;;;;;;;;;;;;clips/clip_herz_15_nosub_0.mp4;audios/silence.mp3;visual;[3.5354981999844313, 7.7935649999417365];2;None;3;3.807.358.100.079;None;;;208;B;2026-04-05_17h54.40.576;exp_sofc_final;;02.01.2026;61.009.983.636.102.800;2026-04-05 17h54.41.743969 +0200
;33;0;33;;;;None;None;;;;;;;;;;;;;33;0;33;0;6.771.082.414.998.670;;;;;;;;;;;;;;;;clips/clip_lied_10_nosub_1.mp4;audios/silence.mp3;visual;[4.483197800349444];None;None;;;;;;208;B;2026-04-05_17h54.40.576;exp_sofc_final;;02.01.2026;61.009.983.636.102.800;2026-04-05 17h54.41.743969 +0200
;34;0;34;;;;1;None;3.010.260.300.245.130;None;;;;;;;;;;;34;0;34;0;6.894.742.997.996.500;;;;;;;;;;;;;;;;clips/clip_claude_17_nosub_1.mp4;audios/silence.mp3;visual;[10.395986800082028];1;None;1;3.010.260.300.245.130;None;;;208;B;2026-04-05_17h54.40.576;exp_sofc_final;;02.01.2026;61.009.983.636.102.800;2026-04-05 17h54.41.743969 +0200
;35;0;35;;;;3;None;33.087.323.997.169.700;None;;;;;;;;;;;35;0;35;0;7.048.659.706.995.820;;;;;;;;;;;;;;;;clips/clip_herz_01_sub_1.mp4;audios/silence.mp3;visual;[6.443595899734646];3;None;3;33.087.323.997.169.700;None;;;208;B;2026-04-05_17h54.40.576;exp_sofc_final;;02.01.2026;61.009.983.636.102.800;2026-04-05 17h54.41.743969 +0200
;36;0;36;;;;None;None;;;;;;;;;;;;;36;0;36;0;7.197.255.033.999.680;;;;;;;;;;;;;;;;clips/clip_weißt_27_nosub_1.mp4;audios/silence.mp3;visual;[7.9667952000163496];None;None;;;;;;208;B;2026-04-05_17h54.40.576;exp_sofc_final;;02.01.2026;61.009.983.636.102.800;2026-04-05 17h54.41.743969 +0200
;37;0;37;;;;None;None;;;;;;;;;;;;;37;0;37;0;7.306.277.218.996.540;;;;;;;;;;;;;;;;clips/clip_hund_11_sub_1.mp4;audios/silence.mp3;visual;[6.29167400021106];None;None;;;;;;208;B;2026-04-05_17h54.40.576;exp_sofc_final;;02.01.2026;61.009.983.636.102.800;2026-04-05 17h54.41.743969 +0200
;38;0;38;;;;2;None;43.601.005.002.856.200;None;;;;;;;;;;;38;0;38;0;741.174.952.399.917;;;;;;;;;;;;;;;;clips/clip_weißt_14_sub_2.mp4;audios/silence.mp3;visual;[2.988504400011152, 8.0484704002738];2;None;2;43.601.005.002.856.200;None;;;208;B;2026-04-05_17h54.40.576;exp_sofc_final;;02.01.2026;61.009.983.636.102.800;2026-04-05 17h54.41.743969 +0200
;39;0;39;;;;None;None;;;;;;;;;;;;;39;0;39;0;755.315.231.199.842;;;;;;;;;;;;;;;;clips/clip_weißt_22_nosub_0.mp4;audios/silence.mp3;visual;[];None;None;;;;;;208;B;2026-04-05_17h54.40.576;exp_sofc_final;;02.01.2026;61.009.983.636.102.800;2026-04-05 17h54.41.743969 +0200
;40;0;40;;;;None;None;;;;;;;;;;;;;40;0;40;0;7.672.690.150.998.530;;;;;;;;;;;;;;;;clips/clip_claude_14_nosub_0.mp4;audios/clip_claude_14_nosub_0.mp3;audiovisual;[3.0942635000683367, 8.939190100412816];None;None;;;;;;208;B;2026-04-05_17h54.40.576;exp_sofc_final;;02.01.2026;61.009.983.636.102.800;2026-04-05 17h54.41.743969 +0200
;41;0;41;;;;2;None;30.713.848.997.838.700;None;;;;;;;;;;;41;0;41;0;7.791.525.023.998.690;;;;;;;;;;;;;;;;clips/clip_wurst_04_sub_2.mp4;audios/silence.mp3;visual;[4.293824200052768, 7.2688392996788025];2;None;2;30.713.848.997.838.700;None;;;208;B;2026-04-05_17h54.40.576;exp_sofc_final;;02.01.2026;61.009.983.636.102.800;2026-04-05 17h54.41.743969 +0200
;42;0;42;;;;None;None;;;;;;;;;;;;;42;0;42;0;7.948.300.425.997.000;;;;;;;;;;;;;;;;clips/clip_herz_16_nosub_0.mp4;audios/clip_herz_16_nosub_0.mp3;audiovisual;[];None;None;;;;;;208;B;2026-04-05_17h54.40.576;exp_sofc_final;;02.01.2026;61.009.983.636.102.800;2026-04-05 17h54.41.743969 +0200
;43;0;43;;;;None;None;;;;;;;;;;;;;43;0;43;0;8.046.658.159.997.310;;;;;;;;;;;;;;;;clips/clip_holo_28_nosub_0.mp4;audios/clip_holo_28_nosub_0.mp3;audiovisual;[];None;None;;;;;;208;B;2026-04-05_17h54.40.576;exp_sofc_final;;02.01.2026;61.009.983.636.102.800;2026-04-05 17h54.41.743969 +0200
;44;0;44;;;;None;None;;;;;;;;;;;;;44;0;44;0;8.140.681.410.999.960;;;;;;;;;;;;;;;;clips/clip_holo_12_sub_1.mp4;audios/silence.mp3;visual;[8.584341399837285];None;None;;;;;;208;B;2026-04-05_17h54.40.576;exp_sofc_final;;02.01.2026;61.009.983.636.102.800;2026-04-05 17h54.41.743969 +0200
;45;0;45;;;;None;None;;;;;;;;;;;;;45;0;45;0;8.251.059.454.996.130;;;;;;;;;;;;;;;;clips/clip_holo_23_nosub_1.mp4;audios/clip_holo_23_nosub_1.mp3;audiovisual;[];None;None;;;;;;208;B;2026-04-05_17h54.40.576;exp_sofc_final;;02.01.2026;61.009.983.636.102.800;2026-04-05 17h54.41.743969 +0200
;46;0;46;;;;None;None;;;;;;;;;;;;;46;0;46;0;8.359.790.706.997.730;;;;;;;;;;;;;;;;clips/clip_herz_06_sub_2.mp4;audios/clip_herz_06_sub_2.mp3;audiovisual;[5.030393499881029, 10.103620799724013];None;None;;;;;;208;B;2026-04-05_17h54.40.576;exp_sofc_final;;02.01.2026;61.009.983.636.102.800;2026-04-05 17h54.41.743969 +0200
;47;0;47;;;;None;None;;;;;;;;;;;;;47;0;47;0;8.473.019.507.997.660;;;;;;;;;;;;;;;;clips/clip_lied_16_nosub_2.mp4;audios/clip_lied_16_nosub_2.mp3;audiovisual;[3.9652406997047365, 6.689171799924225];None;None;;;;;;208;B;2026-04-05_17h54.40.576;exp_sofc_final;;02.01.2026;61.009.983.636.102.800;2026-04-05 17h54.41.743969 +0200
;48;0;48;;;;None;None;;;;;;;;;;;;;48;0;48;0;8.587.435.023.998.840;;;;;;;;;;;;;;;;clips/clip_wurst_07_nosub_0.mp4;audios/clip_wurst_07_nosub_0.mp3;audiovisual;[];None;None;;;;;;208;B;2026-04-05_17h54.40.576;exp_sofc_final;;02.01.2026;61.009.983.636.102.800;2026-04-05 17h54.41.743969 +0200
;49;0;49;;;;None;None;;;;;;;;;;;;;49;0;49;0;8.695.778.758.996.160;;;;;;;;;;;;;;;;clips/clip_lied_09_sub_1.mp4;audios/clip_lied_09_sub_1.mp3;audiovisual;[];None;None;;;;;;208;B;2026-04-05_17h54.40.576;exp_sofc_final;;02.01.2026;61.009.983.636.102.800;2026-04-05 17h54.41.743969 +0200
;50;0;50;;;;None;None;;;;;;;;;;;;;50;0;50;0;8.807.865.831.996.310;;;;;;;;;;;;;;;;clips/clip_holo_26_sub_2.mp4;audios/clip_holo_26_sub_2.mp3;audiovisual;[6.1727662002667785];None;None;;;;;;208;B;2026-04-05_17h54.40.576;exp_sofc_final;;02.01.2026;61.009.983.636.102.800;2026-04-05 17h54.41.743969 +0200
;51;0;51;;;;None;None;;;;;;;;;;;;;51;0;51;0;8.907.861.818.997.180;;;;;;;;;;;;;;;;clips/clip_hund_21_nosub_1.mp4;audios/silence.mp3;visual;[6.369110300205648];None;None;;;;;;208;B;2026-04-05_17h54.40.576;exp_sofc_final;;02.01.2026;61.009.983.636.102.800;2026-04-05 17h54.41.743969 +0200
;52;0;52;;;;None;None;;;;;;;;;;;;;52;0;52;0;901.653.531.299.904;;;;;;;;;;;;;;;;clips/clip_weißt_17_nosub_0.mp4;audios/clip_weißt_17_nosub_0.mp3;audiovisual;[];None;None;;;;;;208;B;2026-04-05_17h54.40.576;exp_sofc_final;;02.01.2026;61.009.983.636.102.800;2026-04-05 17h54.41.743969 +0200
;53;0;53;;;;None;None;;;;;;;;;;;;;53;0;53;0;9.139.914.417.997.930;;;;;;;;;;;;;;;;clips/clip_hund_34_nosub_1.mp4;audios/silence.mp3;visual;[];None;None;;;;;;208;B;2026-04-05_17h54.40.576;exp_sofc_final;;02.01.2026;61.009.983.636.102.800;2026-04-05 17h54.41.743969 +0200
;54;0;54;;;;None;None;;;;;;;;;;;;;54;0;54;0;9.252.511.656.996.790;;;;;;;;;;;;;;;;clips/clip_dampf_02_nosub_1.mp4;audios/clip_dampf_02_nosub_1.mp3;audiovisual;[4.931127700023353];None;None;;;;;;208;B;2026-04-05_17h54.40.576;exp_sofc_final;;02.01.2026;61.009.983.636.102.800;2026-04-05 17h54.41.743969 +0200
;55;0;55;;;;None;None;;;;;;;;;;;;;55;0;55;0;9.354.530.185.996.550;;;;;;;;;;;;;;;;clips/clip_weißt_11_sub_0.mp4;audios/clip_weißt_11_sub_0.mp3;audiovisual;[];None;None;;;;;;208;B;2026-04-05_17h54.40.576;exp_sofc_final;;02.01.2026;61.009.983.636.102.800;2026-04-05 17h54.41.743969 +0200
;56;0;56;;;;1;None;2.502.452.100.161.460;None;;;;;;;;;;;56;0;56;0;9.462.751.050.000.070;;;;;;;;;;;;;;;;clips/clip_claude_08_sub_0.mp4;audios/clip_claude_08_sub_0.mp3;audiovisual;[];1;None;1;2.502.452.100.161.460;None;;;208;B;2026-04-05_17h54.40.576;exp_sofc_final;;02.01.2026;61.009.983.636.102.800;2026-04-05 17h54.41.743969 +0200
;57;0;57;;;;None;None;;;;;;;;;;;;;57;0;57;0;9.592.689.767.996.780;;;;;;;;;;;;;;;;clips/clip_hund_15_sub_1.mp4;audios/silence.mp3;visual;[4.691443900112063];None;None;;;;;;208;B;2026-04-05_17h54.40.576;exp_sofc_final;;02.01.2026;61.009.983.636.102.800;2026-04-05 17h54.41.743969 +0200
;58;0;58;;;;1;None;545.854.949.997.738;None;;;;;;;;;;;58;0;58;0;9.705.261.116.996.400;;;;;;;;;;;;;;;;clips/clip_wurst_21_sub_0.mp4;audios/silence.mp3;visual;[];1;None;1;545.854.949.997.738;None;;;208;B;2026-04-05_17h54.40.576;exp_sofc_final;;02.01.2026;61.009.983.636.102.800;2026-04-05 17h54.41.743969 +0200
;59;0;59;;;;None;space;;;28.090.348.499.827.000;None;;;;;;;;;59;0;59;0;9.873.620.841.996.740;;;;;;;;;;;;;;;;clips/clip_weißt_03_sub_0.mp4;audios/silence.mp3;visual;[];None;space;;;;28.090.348.499.827.000;None;208;B;2026-04-05_17h54.40.576;exp_sofc_final;;02.01.2026;61.009.983.636.102.800;2026-04-05 17h54.41.743969 +0200
;60;0;60;;;;None;None;;;;;;;;;;;;;60;0;60;0;1.028.348.583.499.900;;;;;;;;;;;;;;;;clips/clip_wurst_08_sub_1.mp4;audios/silence.mp3;visual;[5.503648899961263];None;None;;;;;;208;B;2026-04-05_17h54.40.576;exp_sofc_final;;02.01.2026;61.009.983.636.102.800;2026-04-05 17h54.41.743969 +0200
;61;0;61;;;;None;None;;;;;;;;;;;;;61;0;61;0;10.377.056.543.999.300;;;;;;;;;;;;;;;;clips/clip_claude_02_nosub_1.mp4;audios/clip_claude_02_nosub_1.mp3;audiovisual;[5.856959199998528];None;None;;;;;;208;B;2026-04-05_17h54.40.576;exp_sofc_final;;02.01.2026;61.009.983.636.102.800;2026-04-05 17h54.41.743969 +0200
;62;0;62;;;;None;None;;;;;;;;;;;;;62;0;62;0;10.483.398.893.997.000;;;;;;;;;;;;;;;;clips/clip_lied_05_sub_0.mp4;audios/clip_lied_05_sub_0.mp3;audiovisual;[];None;None;;;;;;208;B;2026-04-05_17h54.40.576;exp_sofc_final;;02.01.2026;61.009.983.636.102.800;2026-04-05 17h54.41.743969 +0200
;63;0;63;;;;4;None;38.936.622.999.608.500;None;;;;;;;;;;;63;0;63;0;10.585.558.894.998.300;;;;;;;;;;;;;;;;clips/clip_holo_03_nosub_1.mp4;audios/clip_holo_03_nosub_1.mp3;audiovisual;[7.385376300197095];4;None;4;38.936.622.999.608.500;None;;;208;B;2026-04-05_17h54.40.576;exp_sofc_final;;02.01.2026;61.009.983.636.102.800;2026-04-05 17h54.41.743969 +0200
;64;0;64;;;;2;None;25.926.604.997.366.600;None;;;;;;;;;;;64;0;64;0;10.727.680.425.997.800;;;;;;;;;;;;;;;;clips/clip_hund_09_nosub_2.mp4;audios/silence.mp3;visual;[6.244992900174111, 10.725692099891603];2;None;2;25.926.604.997.366.600;None;;;208;B;2026-04-05_17h54.40.576;exp_sofc_final;;02.01.2026;61.009.983.636.102.800;2026-04-05 17h54.41.743969 +0200
;65;0;65;;;;None;None;;;;;;;;;;;;;65;0;65;0;1.087.801.382.199.860;;;;;;;;;;;;;;;;clips/clip_weißt_02_nosub_0.mp4;audios/clip_weißt_02_nosub_0.mp3;audiovisual;[];None;None;;;;;;208;B;2026-04-05_17h54.40.576;exp_sofc_final;;02.01.2026;61.009.983.636.102.800;2026-04-05 17h54.41.743969 +0200
;66;0;66;;;;4;None;36.195.197.999.477.300;None;;;;;;;;;;;66;0;66;0;10.986.543.923.998.200;;;;;;;;;;;;;;;;clips/clip_hund_35_nosub_0.mp4;audios/clip_hund_35_nosub_0.mp3;audiovisual;[];4;None;4;36.195.197.999.477.300;None;;;208;B;2026-04-05_17h54.40.576;exp_sofc_final;;02.01.2026;61.009.983.636.102.800;2026-04-05 17h54.41.743969 +0200
;67;0;67;;;;None;None;;;;;;;;;;;;;67;0;67;0;11.134.888.855.000.000;;;;;;;;;;;;;;;;clips/clip_hund_13_nosub_1.mp4;audios/silence.mp3;visual;[6.328472499735653];None;None;;;;;;208;B;2026-04-05_17h54.40.576;exp_sofc_final;;02.01.2026;61.009.983.636.102.800;2026-04-05 17h54.41.743969 +0200
;68;0;68;;;;None;None;;;;;;;;;;;;;68;0;68;0;11.261.073.003.998.000;;;;;;;;;;;;;;;;clips/clip_weißt_23_nosub_1.mp4;audios/clip_weißt_23_nosub_1.mp3;audiovisual;[8.341753100045025];None;None;;;;;;208;B;2026-04-05_17h54.40.576;exp_sofc_final;;02.01.2026;61.009.983.636.102.800;2026-04-05 17h54.41.743969 +0200
;69;0;69;;;;None;None;;;;;;;;;;;;;69;0;69;0;1.138.332.854.599.690;;;;;;;;;;;;;;;;clips/clip_lied_17_sub_2.mp4;audios/silence.mp3;visual;[2.9633887000381947, 7.856370400171727];None;None;;;;;;208;B;2026-04-05_17h54.40.576;exp_sofc_final;;02.01.2026;61.009.983.636.102.800;2026-04-05 17h54.41.743969 +0200
;70;0;70;;;;None;None;;;;;;;;;;;;;70;0;70;0;1.149.270.110.799.930;;;;;;;;;;;;;;;;clips/clip_weißt_20_sub_1.mp4;audios/clip_weißt_20_sub_1.mp3;audiovisual;[7.982539900112897];None;None;;;;;;208;B;2026-04-05_17h54.40.576;exp_sofc_final;;02.01.2026;61.009.983.636.102.800;2026-04-05 17h54.41.743969 +0200
;71;0;71;;;;None;None;;;;;;;;;;;;;71;0;71;0;11.598.248.517.997.500;;;;;;;;;;;;;;;;clips/clip_weißt_01_nosub_1.mp4;audios/silence.mp3;visual;[5.93509679986164];None;None;;;;;;208;B;2026-04-05_17h54.40.576;exp_sofc_final;;02.01.2026;61.009.983.636.102.800;2026-04-05 17h54.41.743969 +0200
;72;0;72;;;;None;None;;;;;;;;;;;;;72;0;72;0;11.717.189.384.000.300;;;;;;;;;;;;;;;;clips/clip_wurst_03_nosub_1.mp4;audios/clip_wurst_03_nosub_1.mp3;audiovisual;[4.13382859993726];None;None;;;;;;208;B;2026-04-05_17h54.40.576;exp_sofc_final;;02.01.2026;61.009.983.636.102.800;2026-04-05 17h54.41.743969 +0200
;73;0;73;;;;None;None;;;;;;;;;;;;;73;0;73;0;11.844.320.586.998.900;;;;;;;;;;;;;;;;clips/clip_weißt_08_sub_0.mp4;audios/silence.mp3;visual;[7.765894800424576];None;None;;;;;;208;B;2026-04-05_17h54.40.576;exp_sofc_final;;02.01.2026;61.009.983.636.102.800;2026-04-05 17h54.41.743969 +0200
;74;0;74;;;;None;None;;;;;;;;;;;;;74;0;74;0;11.955.708.231.995.800;;;;;;;;;;;;;;;;clips/clip_claude_25_nosub_0.mp4;audios/silence.mp3;visual;[];None;None;;;;;;208;B;2026-04-05_17h54.40.576;exp_sofc_final;;02.01.2026;61.009.983.636.102.800;2026-04-05 17h54.41.743969 +0200
;75;0;75;;;;None;None;;;;;;;;;;;;;75;0;75;0;12.066.559.040.998.100;;;;;;;;;;;;;;;;clips/clip_hund_22_nosub_1.mp4;audios/clip_hund_22_nosub_1.mp3;audiovisual;[8.441055499948561];None;None;;;;;;208;B;2026-04-05_17h54.40.576;exp_sofc_final;;02.01.2026;61.009.983.636.102.800;2026-04-05 17h54.41.743969 +0200
;76;0;76;;;;None;None;;;;;;;;;;;;;76;0;76;0;1.217.490.425.999.740;;;;;;;;;;;;;;;;clips/clip_claude_12_sub_0.mp4;audios/clip_claude_12_sub_0.mp3;audiovisual;[];None;None;;;;;;208;B;2026-04-05_17h54.40.576;exp_sofc_final;;02.01.2026;61.009.983.636.102.800;2026-04-05 17h54.41.743969 +0200
;77;0;77;;;;None;None;;;;;;;;;;;;;77;0;77;0;12.274.748.333.999.800;;;;;;;;;;;;;;;;clips/clip_dampf_05_nosub_2.mp4;audios/silence.mp3;visual;[3.442824499681592, 8.631831999868155];None;None;;;;;;208;B;2026-04-05_17h54.40.576;exp_sofc_final;;02.01.2026;61.009.983.636.102.800;2026-04-05 17h54.41.743969 +0200
;78;0;78;;;;None;None;;;;;;;;;;;;;78;0;78;0;12.370.846.039.997.400;;;;;;;;;;;;;;;;clips/clip_hund_08_sub_1.mp4;audios/clip_hund_08_sub_1.mp3;audiovisual;[];None;None;;;;;;208;B;2026-04-05_17h54.40.576;exp_sofc_final;;02.01.2026;61.009.983.636.102.800;2026-04-05 17h54.41.743969 +0200
;79;0;79;;;;None;None;;;;;;;;;;;;;79;0;79;0;12.478.948.540.999.500;;;;;;;;;;;;;;;;clips/clip_weißt_12_nosub_1.mp4;audios/silence.mp3;visual;[9.083769700024277];None;None;;;;;;208;B;2026-04-05_17h54.40.576;exp_sofc_final;;02.01.2026;61.009.983.636.102.800;2026-04-05 17h54.41.743969 +0200
;80;0;80;;;;None;None;;;;;;;;;;;;;80;0;80;0;12.606.603.159.997.600;;;;;;;;;;;;;;;;clips/clip_weißt_15_sub_1.mp4;audios/clip_weißt_15_sub_1.mp3;audiovisual;[5.4581539002247155];None;None;;;;;;208;B;2026-04-05_17h54.40.576;exp_sofc_final;;02.01.2026;61.009.983.636.102.800;2026-04-05 17h54.41.743969 +0200
;81;0;81;;;;None;None;;;;;;;;;;;;;81;0;81;0;12.724.108.886.998.100;;;;;;;;;;;;;;;;clips/clip_wurst_28_nosub_1.mp4;audios/clip_wurst_28_nosub_1.mp3;audiovisual;[];None;None;;;;;;208;B;2026-04-05_17h54.40.576;exp_sofc_final;;02.01.2026;61.009.983.636.102.800;2026-04-05 17h54.41.743969 +0200
;82;0;82;;;;None;None;;;;;;;;;;;;;82;0;82;0;12.836.061.313.999.800;;;;;;;;;;;;;;;;clips/clip_weißt_30_sub_2.mp4;audios/clip_weißt_30_sub_2.mp3;audiovisual;[4.267940599936992, 11.991933099925518];None;None;;;;;;208;B;2026-04-05_17h54.40.576;exp_sofc_final;;02.01.2026;61.009.983.636.102.800;2026-04-05 17h54.41.743969 +0200
;83;0;83;;;;None;None;;;;;;;;;;;;;83;0;83;0;12.964.360.709.995.900;;;;;;;;;;;;;;;;clips/clip_herz_08_nosub_0.mp4;audios/clip_herz_08_nosub_0.mp3;audiovisual;[5.325592000037432, 9.576858799904585];None;None;;;;;;208;B;2026-04-05_17h54.40.576;exp_sofc_final;;02.01.2026;61.009.983.636.102.800;2026-04-05 17h54.41.743969 +0200
;84;0;84;;;;None;None;;;;;;;;;;;;;84;0;84;0;13.093.355.139.000.300;;;;;;;;;;;;;;;;clips/clip_hund_27_nosub_1.mp4;audios/silence.mp3;visual;[4.726552000269294];None;None;;;;;;208;B;2026-04-05_17h54.40.576;exp_sofc_final;;02.01.2026;61.009.983.636.102.800;2026-04-05 17h54.41.743969 +0200
;85;0;85;;;;None;None;;;;;;;;;;;;;85;0;85;0;13.210.331.043.996.800;;;;;;;;;;;;;;;;clips/clip_holo_18_nosub_0.mp4;audios/silence.mp3;visual;[6.468080699909478, 9.225405800156295];None;None;;;;;;208;B;2026-04-05_17h54.40.576;exp_sofc_final;;02.01.2026;61.009.983.636.102.800;2026-04-05 17h54.41.743969 +0200
;86;0;86;;;;None;None;;;;;;;;;;;;;86;0;86;0;13.337.798.008.997.900;;;;;;;;;;;;;;;;clips/clip_weißt_28_nosub_1.mp4;audios/clip_weißt_28_nosub_1.mp3;audiovisual;[1.4102456998080015, 3.609371399972588, 6.904347599949688];None;None;;;;;;208;B;2026-04-05_17h54.40.576;exp_sofc_final;;02.01.2026;61.009.983.636.102.800;2026-04-05 17h54.41.743969 +0200
;87;0;87;;;;None;None;;;;;;;;;;;;;87;0;87;0;13.447.086.316.999.000;;;;;;;;;;;;;;;;clips/clip_hund_03_sub_1.mp4;audios/clip_hund_03_sub_1.mp3;audiovisual;[6.531856100074947];None;None;;;;;;208;B;2026-04-05_17h54.40.576;exp_sofc_final;;02.01.2026;61.009.983.636.102.800;2026-04-05 17h54.41.743969 +0200
;88;0;88;;;;1;None;36.558.571.001.514.700;None;;;;;;;;;;;88;0;88;0;13.574.053.608.998.600;;;;;;;;;;;;;;;;clips/clip_claude_19_sub_0.mp4;audios/silence.mp3;visual;[];1;None;1;36.558.571.001.514.700;None;;;208;B;2026-04-05_17h54.40.576;exp_sofc_final;;02.01.2026;61.009.983.636.102.800;2026-04-05 17h54.41.743969 +0200
;89;0;89;;;;None;None;;;;;;;;;;;;;89;0;89;0;13.728.416.230.999.800;;;;;;;;;;;;;;;;clips/clip_claude_22_nosub_2.mp4;audios/clip_claude_22_nosub_2.mp3;audiovisual;[8.20474770013243];None;None;;;;;;208;B;2026-04-05_17h54.40.576;exp_sofc_final;;02.01.2026;61.009.983.636.102.800;2026-04-05 17h54.41.743969 +0200
;90;0;90;;;;None;None;;;;;;;;;;;;;90;0;90;0;13.839.391.485.997.400;;;;;;;;;;;;;;;;clips/clip_holo_04_sub_2.mp4;audios/silence.mp3;visual;[3.310008400119841, 7.077326199971139];None;None;;;;;;208;B;2026-04-05_17h54.40.576;exp_sofc_final;;02.01.2026;61.009.983.636.102.800;2026-04-05 17h54.41.743969 +0200
;91;0;91;;;;1;None;6.524.850.700.050.590;None;;;;;;;;;;;91;0;91;0;13.967.339.347.000.200;;;;;;;;;;;;;;;;clips/clip_herz_03_nosub_2.mp4;audios/silence.mp3;visual;[4.414635000284761, 11.248081200290471];1;None;1;6.524.850.700.050.590;None;;;208;B;2026-04-05_17h54.40.576;exp_sofc_final;;02.01.2026;61.009.983.636.102.800;2026-04-05 17h54.41.743969 +0200
;92;0;92;;;;3;None;4.262.130.399.700.250;None;;;;;;;;;;;92;0;92;0;14.167.425.599.000.400;;;;;;;;;;;;;;;;clips/clip_herz_11_nosub_0.mp4;audios/silence.mp3;visual;[5.037777400109917];3;None;4;4.262.130.399.700.250;None;;;208;B;2026-04-05_17h54.40.576;exp_sofc_final;;02.01.2026;61.009.983.636.102.800;2026-04-05 17h54.41.743969 +0200
;93;0;93;;;;None;None;;;;;;;;;;;;;93;0;93;0;14.309.595.756.996.400;;;;;;;;;;;;;;;;clips/clip_claude_09_nosub_2.mp4;audios/silence.mp3;visual;[4.297391300089657, 9.481816600076854];None;None;;;;;;208;B;2026-04-05_17h54.40.576;exp_sofc_final;;02.01.2026;61.009.983.636.102.800;2026-04-05 17h54.41.743969 +0200
;94;0;94;;;;None;None;;;;;;;;;;;;;94;0;94;0;14.420.060.034.999.600;;;;;;;;;;;;;;;;clips/clip_weißt_16_nosub_0.mp4;audios/silence.mp3;visual;[];None;None;;;;;;208;B;2026-04-05_17h54.40.576;exp_sofc_final;;02.01.2026;61.009.983.636.102.800;2026-04-05 17h54.41.743969 +0200
;95;0;95;;;;1;None;4.037.889.499.682.930;None;;;;;;;;;;;95;0;95;0;14.533.760.142.996.900;;;;;;;;;;;;;;;;clips/clip_claude_27_sub_0.mp4;audios/silence.mp3;visual;[];1;None;1;4.037.889.499.682.930;None;;;208;B;2026-04-05_17h54.40.576;exp_sofc_final;;02.01.2026;61.009.983.636.102.800;2026-04-05 17h54.41.743969 +0200
;96;0;96;;;;None;None;;;;;;;;;;;;;96;0;96;0;14.702.965.678.996.400;;;;;;;;;;;;;;;;clips/clip_lied_14_sub_0.mp4;audios/clip_lied_14_sub_0.mp3;audiovisual;[];None;None;;;;;;208;B;2026-04-05_17h54.40.576;exp_sofc_final;;02.01.2026;61.009.983.636.102.800;2026-04-05 17h54.41.743969 +0200
;97;0;97;;;;None;None;;;;;;;;;;;;;97;0;97;0;14.807.624.490.000.300;;;;;;;;;;;;;;;;clips/clip_herz_07_nosub_2.mp4;audios/silence.mp3;visual;[4.4644654002040625, 10.817039799876511];None;None;;;;;;208;B;2026-04-05_17h54.40.576;exp_sofc_final;;02.01.2026;61.009.983.636.102.800;2026-04-05 17h54.41.743969 +0200
;98;0;98;;;;2;None;4.674.994.600.005.440;None;;;;;;;;;;;98;0;98;0;14.936.241.584.997.600;;;;;;;;;;;;;;;;clips/clip_herz_05_sub_0.mp4;audios/silence.mp3;visual;[6.593389799818397];2;None;2;4.674.994.600.005.440;None;;;208;B;2026-04-05_17h54.40.576;exp_sofc_final;;02.01.2026;61.009.983.636.102.800;2026-04-05 17h54.41.743969 +0200
;99;0;99;;;;None;None;;;;;;;;;;;;;99;0;99;0;15.095.057.806.996.600;;;;;;;;;;;;;;;;clips/clip_herz_14_sub_0.mp4;audios/clip_herz_14_sub_0.mp3;audiovisual;[];None;None;;;;;;208;B;2026-04-05_17h54.40.576;exp_sofc_final;;02.01.2026;61.009.983.636.102.800;2026-04-05 17h54.41.743969 +0200
;100;0;100;;;;None;None;;;;;;;;;;;;;100;0;100;0;15.208.176.331.999.700;;;;;;;;;;;;;;;;clips/clip_claude_20_sub_1.mp4;audios/clip_claude_20_sub_1.mp3;audiovisual;[6.555746399797499];None;None;;;;;;208;B;2026-04-05_17h54.40.576;exp_sofc_final;;02.01.2026;61.009.983.636.102.800;2026-04-05 17h54.41.743969 +0200
;101;0;101;;;;None;None;;;;;;;;;;;;;101;0;101;0;15.337.257.893.998.100;;;;;;;;;;;;;;;;clips/clip_lied_11_nosub_1.mp4;audios/clip_lied_11_nosub_1.mp3;audiovisual;[8.092014700174332];None;None;;;;;;208;B;2026-04-05_17h54.40.576;exp_sofc_final;;02.01.2026;61.009.983.636.102.800;2026-04-05 17h54.41.743969 +0200
;102;0;102;;;;None;None;;;;;;;;;;;;;102;0;102;0;15.455.841.584.997.200;;;;;;;;;;;;;;;;clips/clip_wurst_34_sub_2.mp4;audios/clip_wurst_34_sub_2.mp3;audiovisual;[4.756855699699372];None;None;;;;;;208;B;2026-04-05_17h54.40.576;exp_sofc_final;;02.01.2026;61.009.983.636.102.800;2026-04-05 17h54.41.743969 +0200
;103;0;103;;;;None;None;;;;;;;;;;;;;103;0;103;0;15.549.241.104.996.700;;;;;;;;;;;;;;;;clips/clip_holo_22_nosub_1.mp4;audios/silence.mp3;visual;[9.164028599858284];None;None;;;;;;208;B;2026-04-05_17h54.40.576;exp_sofc_final;;02.01.2026;61.009.983.636.102.800;2026-04-05 17h54.41.743969 +0200
;104;0;104;;;;None;None;;;;;;;;;;;;;104;0;104;0;1.565.015.558.899.840;;;;;;;;;;;;;;;;clips/clip_weißt_13_nosub_0.mp4;audios/clip_weißt_13_nosub_0.mp3;audiovisual;[];None;None;;;;;;208;B;2026-04-05_17h54.40.576;exp_sofc_final;;02.01.2026;61.009.983.636.102.800;2026-04-05 17h54.41.743969 +0200
;105;0;105;;;;None;None;;;;;;;;;;;;;105;0;105;0;15.766.271.191.998.300;;;;;;;;;;;;;;;;clips/clip_hund_20_sub_0.mp4;audios/clip_hund_20_sub_0.mp3;audiovisual;[0.018244299571961164];None;None;;;;;;208;B;2026-04-05_17h54.40.576;exp_sofc_final;;02.01.2026;61.009.983.636.102.800;2026-04-05 17h54.41.743969 +0200
;106;0;106;;;;None;None;;;;;;;;;;;;;106;0;106;0;15.889.652.169.998.700;;;;;;;;;;;;;;;;clips/clip_claude_01_nosub_2.mp4;audios/silence.mp3;visual;[6.803817899897695, 8.758572599850595];None;None;;;;;;208;B;2026-04-05_17h54.40.576;exp_sofc_final;;02.01.2026;61.009.983.636.102.800;2026-04-05 17h54.41.743969 +0200
;107;0;107;;;;None;None;;;;;;;;;;;;;107;0;107;0;1.600.844.843.099.820;;;;;;;;;;;;;;;;clips/clip_claude_16_sub_1.mp4;audios/clip_claude_16_sub_1.mp3;audiovisual;[9.00516470009461];None;None;;;;;;208;B;2026-04-05_17h54.40.576;exp_sofc_final;;02.01.2026;61.009.983.636.102.800;2026-04-05 17h54.41.743969 +0200
;108;0;108;;;;None;None;;;;;;;;;;;;;108;0;108;0;16.127.993.734.995.800;;;;;;;;;;;;;;;;clips/clip_claude_23_sub_0.mp4;audios/silence.mp3;visual;[];None;None;;;;;;208;B;2026-04-05_17h54.40.576;exp_sofc_final;;02.01.2026;61.009.983.636.102.800;2026-04-05 17h54.41.743969 +0200
;109;0;109;;;;None;None;;;;;;;;;;;;;109;0;109;0;1.625.879.170.899.740;;;;;;;;;;;;;;;;clips/clip_herz_02_sub_0.mp4;audios/clip_herz_02_sub_0.mp3;audiovisual;[9.998512400314212];None;None;;;;;;208;B;2026-04-05_17h54.40.576;exp_sofc_final;;02.01.2026;61.009.983.636.102.800;2026-04-05 17h54.41.743969 +0200
;110;0;110;;;;None;None;;;;;;;;;;;;;110;0;110;0;16.390.770.064.997.400;;;;;;;;;;;;;;;;clips/clip_wurst_22_sub_0.mp4;audios/clip_wurst_22_sub_0.mp3;audiovisual;[];None;None;;;;;;208;B;2026-04-05_17h54.40.576;exp_sofc_final;;02.01.2026;61.009.983.636.102.800;2026-04-05 17h54.41.743969 +0200
;111;0;111;;;;None;None;;;;;;;;;;;;;111;0;111;0;16.515.671.733.999.600;;;;;;;;;;;;;;;;clips/clip_wurst_06_nosub_2.mp4;audios/silence.mp3;visual;[8.319236000068486];None;None;;;;;;208;B;2026-04-05_17h54.40.576;exp_sofc_final;;02.01.2026;61.009.983.636.102.800;2026-04-05 17h54.41.743969 +0200
;112;0;112;;;;2;None;3.638.616.200.070.820;None;;;;;;;;;;;112;0;112;0;1.663.569.496.799.720;;;;;;;;;;;;;;;;clips/clip_claude_10_nosub_0.mp4;audios/clip_claude_10_nosub_0.mp3;audiovisual;[];2;None;2;3.638.616.200.070.820;None;;;208;B;2026-04-05_17h54.40.576;exp_sofc_final;;02.01.2026;61.009.983.636.102.800;2026-04-05 17h54.41.743969 +0200
;113;0;113;;;;None;None;;;;;;;;;;;;;113;0;113;0;16.792.461.080.998.100;;;;;;;;;;;;;;;;clips/clip_holo_17_sub_0.mp4;audios/clip_holo_17_sub_0.mp3;audiovisual;[];None;None;;;;;;208;B;2026-04-05_17h54.40.576;exp_sofc_final;;02.01.2026;61.009.983.636.102.800;2026-04-05 17h54.41.743969 +0200
;114;0;114;;;;None;None;;;;;;;;;;;;;114;0;114;0;16.899.092.500.996.700;;;;;;;;;;;;;;;;clips/clip_wurst_16_nosub_0.mp4;audios/clip_wurst_16_nosub_0.mp3;audiovisual;[];None;None;;;;;;208;B;2026-04-05_17h54.40.576;exp_sofc_final;;02.01.2026;61.009.983.636.102.800;2026-04-05 17h54.41.743969 +0200
;115;0;115;;;;None;None;;;;;;;;;;;;;115;0;115;0;17.007.812.967.998.900;;;;;;;;;;;;;;;;clips/clip_claude_18_nosub_0.mp4;audios/clip_claude_18_nosub_0.mp3;audiovisual;[];None;None;;;;;;208;B;2026-04-05_17h54.40.576;exp_sofc_final;;02.01.2026;61.009.983.636.102.800;2026-04-05 17h54.41.743969 +0200
;116;0;116;;;;None;None;;;;;;;;;;;;;116;0;116;0;17.106.213.416.997.300;;;;;;;;;;;;;;;;clips/clip_wurst_18_sub_0.mp4;audios/clip_wurst_18_sub_0.mp3;audiovisual;[];None;None;;;;;;208;B;2026-04-05_17h54.40.576;exp_sofc_final;;02.01.2026;61.009.983.636.102.800;2026-04-05 17h54.41.743969 +0200
;117;0;117;;;;None;None;;;;;;;;;;;;;117;0;117;0;17.214.524.601.995.900;;;;;;;;;;;;;;;;clips/clip_lied_18_sub_2.mp4;audios/clip_lied_18_sub_2.mp3;audiovisual;[5.703101499937475, 7.485478799790144];None;None;;;;;;208;B;2026-04-05_17h54.40.576;exp_sofc_final;;02.01.2026;61.009.983.636.102.800;2026-04-05 17h54.41.743969 +0200
;118;0;118;;;;None;None;;;;;;;;;;;;;118;0;118;0;17.329.396.102.996.500;;;;;;;;;;;;;;;;clips/clip_wurst_33_sub_0.mp4;audios/silence.mp3;visual;[];None;None;;;;;;208;B;2026-04-05_17h54.40.576;exp_sofc_final;;02.01.2026;61.009.983.636.102.800;2026-04-05 17h54.41.743969 +0200
;119;0;119;;;;4;space;7.256.230.200.175.190;None;5.700.058.320.024.980;None;;;;;;;;;119;0;119;0;1.743.502.188.500.010;;;;;;;;;;;;;;;;clips/clip_wurst_36_nosub_0.mp4;audios/clip_wurst_36_nosub_0.mp3;audiovisual;[];4;space;4;7.256.230.200.175.190;None;5.700.058.320.024.980;None;208;B;2026-04-05_17h54.40.576;exp_sofc_final;;02.01.2026;61.009.983.636.102.800;2026-04-05 17h54.41.743969 +0200
;120;0;120;;;;None;None;;;;;;;;;;;;;120;0;120;0;18.185.177.803.998.800;;;;;;;;;;;;;;;;clips/clip_hund_16_sub_1.mp4;audios/clip_hund_16_sub_1.mp3;audiovisual;[];None;None;;;;;;208;B;2026-04-05_17h54.40.576;exp_sofc_final;;02.01.2026;61.009.983.636.102.800;2026-04-05 17h54.41.743969 +0200
;121;0;121;;;;None;None;;;;;;;;;;;;;121;0;121;0;1.830.182.766.399.810;;;;;;;;;;;;;;;;clips/clip_holo_19_nosub_1.mp4;audios/clip_holo_19_nosub_1.mp3;audiovisual;[6.4276622999459505];None;None;;;;;;208;B;2026-04-05_17h54.40.576;exp_sofc_final;;02.01.2026;61.009.983.636.102.800;2026-04-05 17h54.41.743969 +0200
;122;0;122;;;;None;None;;;;;;;;;;;;;122;0;122;0;18.410.249.808.998.700;;;;;;;;;;;;;;;;clips/clip_lied_19_nosub_1.mp4;audios/silence.mp3;visual;[5.029815400019288];None;None;;;;;;208;B;2026-04-05_17h54.40.576;exp_sofc_final;;02.01.2026;61.009.983.636.102.800;2026-04-05 17h54.41.743969 +0200
;123;0;123;;;;None;None;;;;;;;;;;;;;123;0;123;0;18.525.832.905.997.500;;;;;;;;;;;;;;;;clips/clip_wurst_30_sub_1.mp4;audios/clip_wurst_30_sub_1.mp3;audiovisual;[];None;None;;;;;;208;B;2026-04-05_17h54.40.576;exp_sofc_final;;02.01.2026;61.009.983.636.102.800;2026-04-05 17h54.41.743969 +0200
;124;0;124;;;;1;None;39.992.889.002.896.800;None;;;;;;;;;;;124;0;124;0;18.633.714.794.996.100;;;;;;;;;;;;;;;;clips/clip_lied_12_sub_0.mp4;audios/silence.mp3;visual;[];1;None;1;39.992.889.002.896.800;None;;;208;B;2026-04-05_17h54.40.576;exp_sofc_final;;02.01.2026;61.009.983.636.102.800;2026-04-05 17h54.41.743969 +0200
;125;0;125;;;;None;None;;;;;;;;;;;;;125;0;125;0;18.773.066.355.995.800;;;;;;;;;;;;;;;;clips/clip_claude_04_sub_2.mp4;audios/clip_claude_04_sub_2.mp3;audiovisual;[8.755427200347185];None;None;;;;;;208;B;2026-04-05_17h54.40.576;exp_sofc_final;;02.01.2026;61.009.983.636.102.800;2026-04-05 17h54.41.743969 +0200
;126;0;126;;;;4;None;4.310.941.299.889.230;None;;;;;;;;;;;126;0;126;0;18.871.370.942.997.700;;;;;;;;;;;;;;;;clips/clip_lied_22_sub_1.mp4;audios/clip_lied_22_sub_1.mp3;audiovisual;[6.07774809980765];4;None;4;4.310.941.299.889.230;None;;;208;B;2026-04-05_17h54.40.576;exp_sofc_final;;02.01.2026;61.009.983.636.102.800;2026-04-05 17h54.41.743969 +0200
;127;0;127;;;;None;None;;;;;;;;;;;;;127;0;127;0;19.027.749.799.997.500;;;;;;;;;;;;;;;;clips/clip_claude_07_sub_0.mp4;audios/silence.mp3;visual;[];None;None;;;;;;208;B;2026-04-05_17h54.40.576;exp_sofc_final;;02.01.2026;61.009.983.636.102.800;2026-04-05 17h54.41.743969 +0200
;128;0;128;;;;None;None;;;;;;;;;;;;;128;0;128;0;19.135.785.742.998.100;;;;;;;;;;;;;;;;clips/clip_herz_17_sub_0.mp4;audios/silence.mp3;visual;[5.7112306002527475];None;None;;;;;;208;B;2026-04-05_17h54.40.576;exp_sofc_final;;02.01.2026;61.009.983.636.102.800;2026-04-05 17h54.41.743969 +0200
;129;0;129;;;;None;None;;;;;;;;;;;;;129;0;129;0;19.226.075.794.999.400;;;;;;;;;;;;;;;;clips/clip_hund_17_nosub_1.mp4;audios/silence.mp3;visual;[10.23061400000006];None;None;;;;;;208;B;2026-04-05_17h54.40.576;exp_sofc_final;;02.01.2026;61.009.983.636.102.800;2026-04-05 17h54.41.743969 +0200
;130;0;130;;;;None;None;;;;;;;;;;;;;130;0;130;0;19.357.861.082.996.200;;;;;;;;;;;;;;;;clips/clip_holo_13_sub_1.mp4;audios/clip_holo_13_sub_1.mp3;audiovisual;[4.523880599997938];None;None;;;;;;208;B;2026-04-05_17h54.40.576;exp_sofc_final;;02.01.2026;61.009.983.636.102.800;2026-04-05 17h54.41.743969 +0200
;131;0;131;;;;None;None;;;;;;;;;;;;;131;0;131;0;19.483.993.433.997.900;;;;;;;;;;;;;;;;clips/clip_weißt_19_sub_1.mp4;audios/silence.mp3;visual;[];None;None;;;;;;208;B;2026-04-05_17h54.40.576;exp_sofc_final;;02.01.2026;61.009.983.636.102.800;2026-04-05 17h54.41.743969 +0200
;132;0;132;;;;None;None;;;;;;;;;;;;;132;0;132;0;19.592.387.133.999.700;;;;;;;;;;;;;;;;clips/clip_hund_32_sub_1.mp4;audios/clip_hund_32_sub_1.mp3;audiovisual;[0.5439384998753667, 7.522297900170088];None;None;;;;;;208;B;2026-04-05_17h54.40.576;exp_sofc_final;;02.01.2026;61.009.983.636.102.800;2026-04-05 17h54.41.743969 +0200
;133;0;133;;;;None;None;;;;;;;;;;;;;133;0;133;0;1.970.060.638.200.020;;;;;;;;;;;;;;;;clips/clip_lied_21_sub_2.mp4;audios/silence.mp3;visual;[5.227009099908173, 10.732158599887043];None;None;;;;;;208;B;2026-04-05_17h54.40.576;exp_sofc_final;;02.01.2026;61.009.983.636.102.800;2026-04-05 17h54.41.743969 +0200
;134;0;134;;;;None;None;;;;;;;;;;;;;134;0;134;0;19.824.134.696.000.200;;;;;;;;;;;;;;;;clips/clip_holo_27_nosub_1.mp4;audios/silence.mp3;visual;[5.5226306999102235];None;None;;;;;;208;B;2026-04-05_17h54.40.576;exp_sofc_final;;02.01.2026;61.009.983.636.102.800;2026-04-05 17h54.41.743969 +0200
;135;0;135;;;;None;None;;;;;;;;;;;;;135;0;135;0;19.932.985.566.998.800;;;;;;;;;;;;;;;;clips/clip_weißt_25_sub_1.mp4;audios/silence.mp3;visual;[5.221875200048089];None;None;;;;;;208;B;2026-04-05_17h54.40.576;exp_sofc_final;;02.01.2026;61.009.983.636.102.800;2026-04-05 17h54.41.743969 +0200
;136;0;136;;;;None;None;;;;;;;;;;;;;136;0;136;0;2.006.160.012.499.890;;;;;;;;;;;;;;;;clips/clip_lied_03_nosub_1.mp4;audios/clip_lied_03_nosub_1.mp3;audiovisual;[4.519368600100279];None;None;;;;;;208;B;2026-04-05_17h54.40.576;exp_sofc_final;;02.01.2026;61.009.983.636.102.800;2026-04-05 17h54.41.743969 +0200
;137;0;137;;;;None;None;;;;;;;;;;;;;137;0;137;0;20.177.774.084.997.300;;;;;;;;;;;;;;;;clips/clip_holo_08_sub_2.mp4;audios/silence.mp3;visual;[4.281465500127524, 9.14869729988277];None;None;;;;;;208;B;2026-04-05_17h54.40.576;exp_sofc_final;;02.01.2026;61.009.983.636.102.800;2026-04-05 17h54.41.743969 +0200
;138;0;138;;;;None;None;;;;;;;;;;;;;138;0;138;0;20.295.528.086.000.100;;;;;;;;;;;;;;;;clips/clip_holo_02_nosub_2.mp4;audios/silence.mp3;visual;[1.647646900266409, 3.972282000351697, 8.360052899923176];None;None;;;;;;208;B;2026-04-05_17h54.40.576;exp_sofc_final;;02.01.2026;61.009.983.636.102.800;2026-04-05 17h54.41.743969 +0200
;139;0;139;;;;None;None;;;;;;;;;;;;;139;0;139;0;20.414.340.670.998.200;;;;;;;;;;;;;;;;clips/clip_claude_29_sub_0.mp4;audios/clip_claude_29_sub_0.mp3;audiovisual;[];None;None;;;;;;208;B;2026-04-05_17h54.40.576;exp_sofc_final;;02.01.2026;61.009.983.636.102.800;2026-04-05 17h54.41.743969 +0200
;140;0;140;;;;None;None;;;;;;;;;;;;;140;0;140;0;20.522.929.892.996.300;;;;;;;;;;;;;;;;clips/clip_lied_08_sub_1.mp4;audios/silence.mp3;visual;[7.733213999774307];None;None;;;;;;208;B;2026-04-05_17h54.40.576;exp_sofc_final;;02.01.2026;61.009.983.636.102.800;2026-04-05 17h54.41.743969 +0200
;141;0;141;;;;4;None;1.030.482.989.968.730;None;;;;;;;;;;;141;0;141;0;20.621.606.641.998.500;;;;;;;;;;;;;;;;clips/clip_wurst_25_sub_1.mp4;audios/silence.mp3;visual;[];4;None;4;1.030.482.989.968.730;None;;;208;B;2026-04-05_17h54.40.576;exp_sofc_final;;02.01.2026;61.009.983.636.102.800;2026-04-05 17h54.41.743969 +0200
;142;0;142;;;;None;None;;;;;;;;;;;;;142;0;142;0;20.845.630.877.995.800;;;;;;;;;;;;;;;;clips/clip_claude_13_nosub_0.mp4;audios/silence.mp3;visual;[];None;None;;;;;;208;B;2026-04-05_17h54.40.576;exp_sofc_final;;02.01.2026;61.009.983.636.102.800;2026-04-05 17h54.41.743969 +0200
;143;0;143;;;;None;None;;;;;;;;;;;;;143;0;143;0;2.094.556.660.399.770;;;;;;;;;;;;;;;;clips/clip_wurst_27_nosub_1.mp4;audios/silence.mp3;visual;[6.07132579991594];None;None;;;;;;208;B;2026-04-05_17h54.40.576;exp_sofc_final;;02.01.2026;61.009.983.636.102.800;2026-04-05 17h54.41.743969 +0200
;144;0;144;;;;None;None;;;;;;;;;;;;;144;0;144;0;21.056.889.828.997.600;;;;;;;;;;;;;;;;clips/clip_lied_07_nosub_1.mp4;audios/clip_lied_07_nosub_1.mp3;audiovisual;[4.592397499829531];None;None;;;;;;208;B;2026-04-05_17h54.40.576;exp_sofc_final;;02.01.2026;61.009.983.636.102.800;2026-04-05 17h54.41.743969 +0200
;145;0;145;;;;2;None;944.592.810.003.087;None;;;;;;;;;;;145;0;145;0;21.155.368.332.997.800;;;;;;;;;;;;;;;;clips/clip_hund_05_nosub_0.mp4;audios/clip_hund_05_nosub_0.mp3;audiovisual;[4.1206641998142];2;None;3;944.592.810.003.087;None;;;208;B;2026-04-05_17h54.40.576;exp_sofc_final;;02.01.2026;61.009.983.636.102.800;2026-04-05 17h54.41.743969 +0200
;146;0;146;;;;None;None;;;;;;;;;;;;;146;0;146;0;21.374.290.422.997.400;;;;;;;;;;;;;;;;clips/clip_wurst_20_nosub_0.mp4;audios/clip_wurst_20_nosub_0.mp3;audiovisual;[];None;None;;;;;;208;B;2026-04-05_17h54.40.576;exp_sofc_final;;02.01.2026;61.009.983.636.102.800;2026-04-05 17h54.41.743969 +0200
;147;0;147;;;;None;None;;;;;;;;;;;;;147;0;147;0;214.842.338.990.001;;;;;;;;;;;;;;;;clips/clip_holo_09_sub_2.mp4;audios/clip_holo_09_sub_2.mp3;audiovisual;[];None;None;;;;;;208;B;2026-04-05_17h54.40.576;exp_sofc_final;;02.01.2026;61.009.983.636.102.800;2026-04-05 17h54.41.743969 +0200
;148;0;148;;;;;;;;;;;;;;;;;;148;0;148;0;2.160.514.929.899.940;;;;;;;;;;;;;;;;clips/clip_claude_03_sub_1.mp4;audios/silence.mp3;visual;;;;;;;;;;;;;;;;
