instruction_text,thisN,thisTrialN,thisRepN,key_resp_instruction.keys,key_resp_instruction.rt,key_resp_instruction.duration,clip_file,clip_path,sound_path,movie,subtitles,n_cut,clip_num,first_cut,second_cut,clip_duration,attention_check_question,attention_check_correct,attention_check_distractor_1,attention_check_distractor_2,attention_check_distractor_3,prac_attention_resp.keys,prac_attention_resp.rt,prac_attention_resp.duration,exp_atttention_resp.keys,exp_pause_resp.keys,exp_atttention_resp.rt,exp_atttention_resp.duration,exp_pause_resp.rt,exp_pause_resp.duration,instruction_trials.thisRepN,instruction_trials.thisTrialN,instruction_trials.thisN,instruction_trials.thisIndex,practice_trials.thisRepN,practice_trials.thisTrialN,practice_trials.thisN,practice_trials.thisIndex,experiment_trials.thisRepN,experiment_trials.thisTrialN,experiment_trials.thisN,experiment_trials.thisIndex,thisRow.t,notes,instructions.started,text_instruction.started,key_resp_instruction.started,instructions.stopped,instruction_trials.key_resp_instruction.keys,instruction_trials.key_resp_instruction.rt,instruction_trials.key_resp_instruction.duration,informed_consent.started,slider_informed_consent.started,text_informed_consent.started,informed_consent.stopped,slider_informed_consent.response,slider_informed_consent.rt,begin_practice.started,begin_practice_text.started,begin_practice.stopped,Practice_clip_name,Practice_video_used,Practice_audio_used,Practice_modality,Practice_subtitles,Practice_attention_check,practice_clip.started,prac_feedback.started,prac_fixation_cross.started,prac_fixation_cross.stopped,prac_clip.started,prac_sound.started,prac_clip.stopped,prac_sound.stopped,practice_clip.stopped,prac_all_cut_rts,Practice_correct_key_required,practice_attention_check.started,prac_attention_resp.started,prac_question.started,prac_options.started,practice_attention_check.stopped,practice_trials.prac_attention_resp.keys,practice_trials.prac_attention_resp.rt,practice_trials.prac_attention_resp.duration,begin_experiment.started,begin_experiment_text.started,begin_experiment.stopped,video_used,audio_used,condition_modality,experiment_clip.started,exp_fixation_cross.started,exp_fixation_cross.stopped,exp_clip.started,exp_sound.started,exp_sound.stopped,exp_clip.stopped,experiment_clip.stopped,all_cut_rts,experiment_attention_check.started,experiment_attention_check.stopped,experiment_trials.exp_atttention_resp.keys,experiment_pause.started,experiment_pause.stopped,experiment_trials.exp_pause_resp.keys,correct_key_required,exp_atttention_resp.started,exp_question.started,exp_options.started,experiment_trials.exp_atttention_resp.rt,experiment_trials.exp_atttention_resp.duration,exp_pause_text.started,exp_pause_resp.started,exp_countdown.started,experiment_trials.exp_pause_resp.rt,experiment_trials.exp_pause_resp.duration,end.started,text_end.started,participant,session,date,expName,expVersion,psychopyVersion,frameRate,expStart,
"Herzlich willkommen!

Vielen Dank, dass Sie an unserer Studie teilnehmen. Die Untersuchung wird insgesamt etwa 35 Minuten in Anspruch nehmen.

Bevor wir beginnen, beachten Sie bitte folgende Voraussetzungen für die Teilnahme:
• Sie sind mindestens 18 Jahre alt.
• Ihre Muttersprache ist Deutsch.

(Drücken Sie die Leertaste, um fortzufahren)",0,0,0,space,9.668935399997281,None,,,,,,,,,,,,,,,,,,,,,,,,,0,0,0,0,,,,,,,,,0.036955100018531084,,0.010120299994014204,0.036955100018531084,0.036955100018531084,9.71431909999228,space,9.668935399997281,None,,,,,,,,,,,,,,,,,,,,,,,,,,,,,,,,,,,,,,,,,,,,,,,,,,,,,,,,,,,,,,,,,,,,,305,001,2026-03-30_17h30.24.825,exp_sofc,,2025.2.3,59.896809781791525,2026-03-30 17h30.25.486998 +0200,
"Ablauf der Studie

Ihnen werden in schneller Abfolge viele kurze Filmclips gezeigt.
Ihre Aufgabe ist einfach:

Drücken Sie jedes Mal die Leertaste, wenn Sie einen Filmschnitt (Cut) erkennen.

Zusätzlich werden Ihnen gelegentlich kurze Verständnisfragen zu den gezeigten Clips gestellt.

(Drücken Sie die Leertaste, um fortzufahren),",1,1,0,space,9.191199299995787,None,,,,,,,,,,,,,,,,,,,,,,,,,0,1,1,1,,,,,,,,,9.736217199999373,,9.714431100001093,9.736217199999373,9.736217199999373,18.92904020001879,space,9.191199299995787,None,,,,,,,,,,,,,,,,,,,,,,,,,,,,,,,,,,,,,,,,,,,,,,,,,,,,,,,,,,,,,,,,,,,,,305,001,2026-03-30_17h30.24.825,exp_sofc,,2025.2.3,59.896809781791525,2026-03-30 17h30.25.486998 +0200,
"Freiwilligkeit Ihrer Teilnahme

Ihre Teilnahme an dieser Studie ist absolut freiwillig. Sie können das Experiment jederzeit und ohne Angabe von Gründen abbrechen, ohne dass Ihnen daraus irgendwelche Nachteile entstehen.

Sollten Sie die Studie vorzeitig beenden, werden Ihre bis dahin erhobenen Daten umgehend gelöscht und nicht gespeichert.

(Drücken Sie die Leertaste, um fortzufahren)",2,2,0,space,8.645093900006032,None,,,,,,,,,,,,,,,,,,,,,,,,,0,2,2,2,,,,,,,,,19.014268200000515,,18.9291716000007,19.014268200000515,19.014268200000515,27.661857700004475,space,8.645093900006032,None,,,,,,,,,,,,,,,,,,,,,,,,,,,,,,,,,,,,,,,,,,,,,,,,,,,,,,,,,,,,,,,,,,,,,305,001,2026-03-30_17h30.24.825,exp_sofc,,2025.2.3,59.896809781791525,2026-03-30 17h30.25.486998 +0200,
"Datenschutz und Anonymität

Die Erhebung und Auswertung Ihrer Daten erfolgt am Fachbereich Psychologie der Universität Tübingen und ist vollständig anonym. Ihr Name wird zu keinem Zeitpunkt erfragt oder gespeichert. Niemand wird Ihre Daten mit Ihrer Person in Verbindung bringen können.

Die anonymisierten Experimentaldaten werden nach Abschluss der Erhebung für mindestens 10 Jahre gespeichert und zu Forschungszwecken in einer öffentlichen Datenbank zugänglich gemacht.

(Drücken Sie die Leertaste, um fortzufahren),",3,3,0,space,7.534425099991495,None,,,,,,,,,,,,,,,,,,,,,,,,,0,3,3,3,,,,,,,,,27.694217300013406,,27.66200270000263,27.694217300013406,27.694217300013406,35.24036799999885,space,7.534425099991495,None,,,,,,,,,,,,,,,,,,,,,,,,,,,,,,,,,,,,,,,,,,,,,,,,,,,,,,,,,,,,,,,,,,,,,305,001,2026-03-30_17h30.24.825,exp_sofc,,2025.2.3,59.896809781791525,2026-03-30 17h30.25.486998 +0200,
"Einverständniserklärung

Bitte lesen Sie die folgende Erklärung aufmerksam durch:

Ich bestätige, dass ich über 18 Jahre alt bin und ausreichend Zeit hatte, mich für die Teilnahme zu entscheiden. Ich wurde über die Erhebung, Verarbeitung und öffentliche Zugänglichmachung meiner anonymisierten Daten angemessen informiert.
Ich bin mir bewusst, dass ich das Experiment jederzeit abbrechen kann.

(Drücken Sie die Leertaste, um fortzufahren)",4,4,0,space,1.7876740000210702,None,,,,,,,,,,,,,,,,,,,,,,,,,0,4,4,4,,,,,,,,,35.26770329999272,,35.24048730000504,35.26770329999272,35.26770329999272,37.06031990001793,space,1.7876740000210702,None,,,,,,,,,,,,,,,,,,,,,,,,,,,,,,,,,,,,,,,,,,,,,,,,,,,,,,,,,,,,,,,,,,,,,305,001,2026-03-30_17h30.24.825,exp_sofc,,2025.2.3,59.896809781791525,2026-03-30 17h30.25.486998 +0200,
,,,,,,,,,,,,,,,,,,,,,,,,,,,,,,,,,,,,,,,,,,,,,,,,,,,,37.06143840000732,37.07628229999682,37.07628229999682,41.80052479999722,ich stimme zu,4.7232334000000264,,,,,,,,,,,,,,,,,,,,,,,,,,,,,,,,,,,,,,,,,,,,,,,,,,,,,,,,,,,,,,,305,001,2026-03-30_17h30.24.825,exp_sofc,,2025.2.3,59.896809781791525,2026-03-30 17h30.25.486998 +0200,
,,,,,,,,,,,,,,,,,,,,,,,,,,,,,,,,,,,,,,,,,,,,,,,,,,,,,,,,,,41.80055650000577,41.817516900016926,46.808740700013004,,,,,,,,,,,,,,,,,,,,,,,,,,,,,,,,,,,,,,,,,,,,,,,,,,,,,,,,,,,,305,001,2026-03-30_17h30.24.825,exp_sofc,,2025.2.3,59.896809781791525,2026-03-30 17h30.25.486998 +0200,
,0,0,0,,,,clip_weißt_05_sub_0,clips/clip_weißt_05_sub_0.mp4,audios/clip_weißt_05_sub_0.mp3,weißt,sub,0,5,NA,NA,9767,Wer trägt die Leiter?,die Frau,der Mann,beide,keiner,4,11.828188500017859,None,,,,,,,,,,,0,0,0,0,,,,,46.956345100014005,,,,,,,,,,,,,,,,,,clip_hund_28_nosub_0,clips/clip_hund_28_nosub_0.mp4,audios/clip_hund_28_nosub_0.mp3,audiovisual,nosub,True,46.95043590001296,46.956345100014005,47.30144680000376,47.50093179999385,47.50093179999385,47.500945366660986,57.499204299994744,57.499204299994744,57.37169030000223,[],4,57.4914565999934,57.499204299994744,57.499204299994744,57.499204299994744,69.33482250000816,4,11.828188500017859,None,,,,,,,,,,,,,,,,,,,,,,,,,,,,,,,,,,,305,001,2026-03-30_17h30.24.825,exp_sofc,,2025.2.3,59.896809781791525,2026-03-30 17h30.25.486998 +0200,
,1,1,0,,,,clip_hund_02_sub_1,clips/clip_hund_02_sub_1.mp4,audios/clip_hund_02_sub_1.mp3,hund,sub,1,2,8300.0,NA,9900,Welche Farbe hat der Pullover der Frau?,grün,schwarz,blau,rot,None,,,,,,,,,,,,,0,1,1,8,,,,,69.43772149999859,,,,,,,,,,,,,,,,,,clip_hund_25_sub_1,clips/clip_hund_25_sub_1.mp4,audios/silence.mp3,visual,sub,False,69.43091520000598,69.43772149999859,69.84379650000483,70.04526320000878,70.04526320000878,70.04426656666716,78.60179839999182,71.29638750001322,78.37554249999812,[7.619931699999142],,78.4827876999916,,,,78.48281780001707,None,,,,,,,,,,,,,,,,,,,,,,,,,,,,,,,,,,,,,305,001,2026-03-30_17h30.24.825,exp_sofc,,2025.2.3,59.896809781791525,2026-03-30 17h30.25.486998 +0200,
,2,2,0,,,,clip_hund_28_nosub_0,clips/clip_hund_28_nosub_0.mp4,audios/clip_hund_28_nosub_0.mp3,hund,nosub,0,28,NA,NA,9840,Was steht auf dem Tisch vor den Personen?,Weinflasche mit Gläsern,Wasser,Bier,Kaffee,None,,,,,,,,,,,,,0,2,2,4,,,,,78.60179839999182,,,,,,,,,,,,,,,,,,clip_hund_26_sub_1,clips/clip_hund_26_sub_1.mp4,audios/silence.mp3,visual,sub,False,78.59109349999926,78.60179839999182,78.99199730000691,79.1920114000095,79.1920114000095,79.19264526668509,88.79241080000065,80.44385470001725,88.55704079999123,[],,88.66002390001086,,,,88.66007770001306,None,,,,,,,,,,,,,,,,,,,,,,,,,,,,,,,,,,,,,305,001,2026-03-30_17h30.24.825,exp_sofc,,2025.2.3,59.896809781791525,2026-03-30 17h30.25.486998 +0200,
,3,3,0,,,,clip_hund_25_sub_1,clips/clip_hund_25_sub_1.mp4,audios/silence.mp3,hund,sub,1,25,5466.0,NA,8300,Mit was essen die Personen?,mit ihren Händen,mit Messer und Gabel,mit Stäbchen,mit einem Löffel,None,,,,,,,,,,,,,0,3,3,11,,,,,88.79241080000065,,,,,,,,,,,,,,,,,,clip_wurst_09_sub_1,clips/clip_wurst_09_sub_1.mp4,audios/clip_wurst_09_sub_1.mp3,audiovisual,sub,False,88.78605369999423,88.79241080000065,89.17496850001044,89.3754481000069,89.35873900001752,89.35968726667149,100.8571753000142,,100.64414280001074,[0.3478975000034552],,100.74258869999903,,,,100.74263359999168,None,,,,,,,,,,,,,,,,,,,,,,,,,,,,,,,,,,,,,305,001,2026-03-30_17h30.24.825,exp_sofc,,2025.2.3,59.896809781791525,2026-03-30 17h30.25.486998 +0200,
,4,4,0,,,,clip_hund_31_sub_0,clips/clip_hund_31_sub_0.mp4,audios/silence.mp3,hund,sub,1,31,1966.0,NA,8433,Welche Tageszeit ist es?,abends,morgens,mittags,nachts,3,5.475630899978569,None,,,,,,,,,,,0,4,4,9,,,,,100.8571753000142,,,,,,,,,,,,,,,,,,clip_weißt_05_sub_0,clips/clip_weißt_05_sub_0.mp4,audios/clip_weißt_05_sub_0.mp3,audiovisual,sub,True,100.84983490000013,100.8571753000142,101.25713660000474,101.45706300000893,101.45706300000893,101.4571010666589,111.37850180000532,,111.25626449999982,[],3,111.37127309999778,111.37850180000532,111.37850180000532,111.37850180000532,116.86499669999466,3,5.475630899978569,None,,,,,,,,,,,,,,,,,,,,,,,,,,,,,,,,,,,305,001,2026-03-30_17h30.24.825,exp_sofc,,2025.2.3,59.896809781791525,2026-03-30 17h30.25.486998 +0200,
,5,5,0,,,,clip_hund_26_sub_1,clips/clip_hund_26_sub_1.mp4,audios/silence.mp3,hund,sub,0,26,NA,NA,9333,Wie wirkt die Frau?,amüsiert,hasserfüllt,traurig,ängstlich,None,,,,,,,,,,,,,0,5,5,3,,,,,117.0089760000119,,,,,,,,,,,,,,,,,,clip_hund_06_nosub_0,clips/clip_hund_06_nosub_0.mp4,audios/clip_hund_06_nosub_0.mp3,audiovisual,nosub,False,117.00205340000684,117.0089760000119,117.37345290000667,117.57559500000207,117.57559500000207,117.5737074666579,128.67647679999936,,128.45809709999594,[],,128.57392840000102,,,,128.57395940000424,None,,,,,,,,,,,,,,,,,,,,,,,,,,,,,,,,,,,,,305,001,2026-03-30_17h30.24.825,exp_sofc,,2025.2.3,59.896809781791525,2026-03-30 17h30.25.486998 +0200,
,6,6,0,,,,clip_wurst_09_sub_1,clips/clip_wurst_09_sub_1.mp4,audios/clip_wurst_09_sub_1.mp3,wurst,sub,1,9,3666.0,NA,11267,Wer sind die alten Menschen wahrscheinlich?,Großeltern,Eltern,Geschwister,Nachbarn,None,,,,,,,,,,,,,0,6,6,10,,,,,128.67647679999936,,,,,,,,,,,,,,,,,,clip_hund_31_sub_0,clips/clip_hund_31_sub_0.mp4,audios/silence.mp3,visual,sub,False,128.66954780000378,128.67647679999936,129.07481130000087,129.27614339999855,129.27614339999855,129.27515016668283,137.96799860001192,130.5272995000123,137.74103880001348,[],,137.8533468999958,,,,137.85339309999836,None,,,,,,,,,,,,,,,,,,,,,,,,,,,,,,,,,,,,,305,001,2026-03-30_17h30.24.825,exp_sofc,,2025.2.3,59.896809781791525,2026-03-30 17h30.25.486998 +0200,
,7,7,0,,,,clip_hund_06_nosub_0,clips/clip_hund_06_nosub_0.mp4,audios/clip_hund_06_nosub_0.mp3,hund,nosub,0,6,NA,NA,10860,Wie sieht das Studio aus?,unaufgeräumt,sehr ordentlich,komplett leer,stark überfüllt,None,,,,,,,,,,,,,0,7,7,2,,,,,137.96799860001192,,,,,,,,,,,,,,,,,,clip_weißt_09_sub_1,clips/clip_weißt_09_sub_1.mp4,audios/silence.mp3,visual,sub,False,137.96041790000163,137.96799860001192,138.35793379999814,138.55840470001567,138.55840470001567,138.55805366667144,147.81719060000614,139.81111490001786,147.5883786000195,[6.369885099993553],,147.69767560000764,,,,147.69772560001002,None,,,,,,,,,,,,,,,,,,,,,,,,,,,,,,,,,,,,,305,001,2026-03-30_17h30.24.825,exp_sofc,,2025.2.3,59.896809781791525,2026-03-30 17h30.25.486998 +0200,
,8,8,0,,,,clip_weißt_18_nosub_1,clips/clip_weißt_18_nosub_1.mp4,audios/silence.mp3,weißt,nosub,1,18,5680.0,NA,12000,Wie wirken die Personen?,überrascht,wütend,verzweifelt,gelangweilt,1,3.151573399984045,None,,,,,,,,,,,0,8,8,7,,,,,147.81719060000614,,,,,,,,,,,,,,,,,,clip_hund_02_sub_1,clips/clip_hund_02_sub_1.mp4,audios/clip_hund_02_sub_1.mp3,audiovisual,sub,True,147.8097592999984,147.81719060000614,148.20458980000694,148.4049398000061,148.4049398000061,148.40485376667155,158.4234870999935,158.31939210000564,158.32087490000413,[9.601543799974024],1,158.4181058999966,158.4234870999935,158.4234870999935,158.4234870999935,161.58402619999833,1,3.151573399984045,None,,,,,,,,,,,,,,,,,,,,,,,,,,,,,,,,,,,305,001,2026-03-30_17h30.24.825,exp_sofc,,2025.2.3,59.896809781791525,2026-03-30 17h30.25.486998 +0200,
,9,9,0,,,,clip_weißt_09_sub_1,clips/clip_weißt_09_sub_1.mp4,audios/silence.mp3,weißt,sub,1,9,4866.0,NA,9000,Was macht die Frau?,sie wickelt ein Band auf,sie näht,sie strickt,sie faltet Wäsche,None,,,,,,,,,,,,,0,9,9,5,,,,,161.70810630000778,,,,,,,,,,,,,,,,,,clip_weißt_10_nosub_1,clips/clip_weißt_10_nosub_1.mp4,audios/clip_weißt_10_nosub_1.mp3,audiovisual,nosub,False,161.70027299999492,161.70810630000778,162.08533220001846,162.28684970000177,162.28684970000177,162.28492486666462,173.5086406999908,173.3035010000167,173.30479729999206,[5.378043299977435],,173.3988917999959,,,,173.39892169999075,None,,,,,,,,,,,,,,,,,,,,,,,,,,,,,,,,,,,,,305,001,2026-03-30_17h30.24.825,exp_sofc,,2025.2.3,59.896809781791525,2026-03-30 17h30.25.486998 +0200,
,10,10,0,,,,clip_weißt_10_nosub_1,clips/clip_weißt_10_nosub_1.mp4,audios/clip_weißt_10_nosub_1.mp3,weißt,nosub,1,10,4280.0,NA,11000,Was macht der Mann?,er greift an den Fernseher,er schaltet das Radio ein,er wirft eine Flasche,er öffnet das Fenster,2,4.778042899997672,None,,,,,,,,,,,0,10,10,6,,,,,173.5086406999908,,,,,,,,,,,,,,,,,,clip_weißt_21_nosub_0,clips/clip_weißt_21_nosub_0.mp4,audios/silence.mp3,visual,nosub,True,173.5016830000095,173.5086406999908,173.91470220001065,174.1149207999988,174.1149207999988,174.11394286668317,184.34346470001037,175.36634140001843,184.21361160001834,[],2,184.33776070000022,184.34346470001037,184.34346470001037,184.34346470001037,189.13760819999152,2,4.778042899997672,None,,,,,,,,,,,,,,,,,,,,,,,,,,,,,,,,,,,305,001,2026-03-30_17h30.24.825,exp_sofc,,2025.2.3,59.896809781791525,2026-03-30 17h30.25.486998 +0200,
,11,11,0,,,,clip_weißt_21_nosub_0,clips/clip_weißt_21_nosub_0.mp4,audios/silence.mp3,weißt,nosub,0,21,NA,NA,10080,Wo stehen die Personen?,am Balkongeländer,am Strand,an einer Bushaltestelle,im Wald,None,,,,,,,,,,,,,0,11,11,1,,,,,189.26125480001792,,,,,,,,,,,,,,,,,,clip_weißt_18_nosub_1,clips/clip_weißt_18_nosub_1.mp4,audios/silence.mp3,visual,nosub,False,189.2540360999992,189.26125480001792,189.638105799997,189.83863620000193,189.83863620000193,189.83936696665867,201.9643969000026,191.0904797000112,201.8585688000021,[7.053702800010797],,201.9570856000064,,,,201.95711489999667,None,,,,,,,,,,,,,,,,,,,,,,,,,,,,,,,,,,,,,305,001,2026-03-30_17h30.24.825,exp_sofc,,2025.2.3,59.896809781791525,2026-03-30 17h30.25.486998 +0200,
,,,,,,,,,,,,,,,,,,,,,,,,,,,,,,,,,,,,,,,,,,,,,,,,,,,,,,,,,,,,,,,,,,,,,,,,,,,,,,,,,,,,,,201.95719050001935,201.9643969000026,206.9575773999968,,,,,,,,,,,,,,,,,,,,,,,,,,,,,,,,305,001,2026-03-30_17h30.24.825,exp_sofc,,2025.2.3,59.896809781791525,2026-03-30 17h30.25.486998 +0200,
,0,0,0,,,,,,,,,,,,,,,,,,,,,,None,None,,,,,,,,,,,,,0,0,0,0,207.0669951000018,,,,,,,,,,,,,,,,,,,,,,,,,,,,,,,,,,,,,,,,,,,,,,clips/clip_weißt_20_sub_1.mp4,audios/silence.mp3,visual,207.06044760000077,207.46647290000692,207.66873530001612,207.66873530001612,207.6666243666589,208.91959110001335,217.70364650001284,217.50016130000586,[8.439182300004177],217.6024497000035,217.6024999000074,None,217.60254170000553,217.60257200000342,None,,,,,,,,,,,,,,305,001,2026-03-30_17h30.24.825,exp_sofc,,2025.2.3,59.896809781791525,2026-03-30 17h30.25.486998 +0200,
,1,0,1,,,,,,,,,,,,,,,,,,,,,,None,None,,,,,,,,,,,,,1,0,1,0,217.70364650001284,,,,,,,,,,,,,,,,,,,,,,,,,,,,,,,,,,,,,,,,,,,,,,clips/clip_dampf_01_nosub_0.mp4,audios/silence.mp3,visual,217.69763660000172,218.10825930000283,218.30839700001525,218.30839700001525,218.30980826667317,219.56007999999565,227.9671570000064,227.75715000001946,[],227.8515664000006,227.8516018000082,None,227.8516360000067,227.8516598000133,None,,,,,,,,,,,,,,305,001,2026-03-30_17h30.24.825,exp_sofc,,2025.2.3,59.896809781791525,2026-03-30 17h30.25.486998 +0200,
,2,0,2,,,,,,,,,,,,,,,,,,,,,,None,None,,,,,,,,,,,,,2,0,2,0,227.9671570000064,,,,,,,,,,,,,,,,,,,,,,,,,,,,,,,,,,,,,,,,,,,,,,clips/clip_claude_29_nosub_0.mp4,audios/clip_claude_29_nosub_0.mp3,audiovisual,227.96325940001407,228.351773900009,228.55227529999684,228.55227529999684,228.55220666667836,238.58471699999063,238.82416330001433,238.58495079999557,[],238.70084910001606,238.7008826000092,None,238.7009221999906,238.70096040001954,None,,,,,,,,,,,,,,305,001,2026-03-30_17h30.24.825,exp_sofc,,2025.2.3,59.896809781791525,2026-03-30 17h30.25.486998 +0200,
,3,0,3,,,,,,,,,,,,,,,,,,,,,,None,None,,,,,,,,,,,,,3,0,3,0,238.82416330001433,,,,,,,,,,,,,,,,,,,,,,,,,,,,,,,,,,,,,,,,,,,,,,clips/clip_holo_01_nosub_1.mp4,audios/clip_holo_01_nosub_1.mp3,audiovisual,238.8189987000078,239.20769969999674,239.4085655999952,239.4085655999952,239.40816936668514,,248.821557999996,248.61267329999828,[4.29915139998775],248.7165718000033,248.71664030000102,None,248.7166846000182,248.7167128000001,None,,,,,,,,,,,,,,305,001,2026-03-30_17h30.24.825,exp_sofc,,2025.2.3,59.896809781791525,2026-03-30 17h30.25.486998 +0200,
,4,0,4,,,,,,,,,,,,,,,,,,,,,,None,None,,,,,,,,,,,,,4,0,4,0,248.821557999996,,,,,,,,,,,,,,,,,,,,,,,,,,,,,,,,,,,,,,,,,,,,,,clips/clip_holo_22_nosub_1.mp4,audios/silence.mp3,visual,248.81605480000144,249.22176099999342,249.42265759999282,249.42265759999282,249.4220881666736,250.67512649999117,258.81713619999937,258.6210417000111,[9.33513920000405],258.71732739999425,258.7173612000188,None,258.71739750000415,258.71742960001575,None,,,,,,,,,,,,,,305,001,2026-03-30_17h30.24.825,exp_sofc,,2025.2.3,59.896809781791525,2026-03-30 17h30.25.486998 +0200,
,5,0,5,,,,,,,,,,,,,,,,,,,,,,None,None,,,,,,,,,,,,,5,0,5,0,258.81713619999937,,,,,,,,,,,,,,,,,,,,,,,,,,,,,,,,,,,,,,,,,,,,,,clips/clip_holo_06_sub_2.mp4,audios/silence.mp3,visual,258.8109473999939,259.2288962000166,259.4292542000185,259.4292542000185,259.4292014666755,260.68113620000076,269.3921810000029,269.1945628999965,[5.522515599994222],269.269632200012,269.26969700001064,None,269.26975310000125,269.26977300000726,None,,,,,,,,,,,,,,305,001,2026-03-30_17h30.24.825,exp_sofc,,2025.2.3,59.896809781791525,2026-03-30 17h30.25.486998 +0200,
,6,0,6,,,,,,,,,,,,,,,,,,,,,,None,None,,,,,,,,,,,,,6,0,6,0,269.3921810000029,,,,,,,,,,,,,,,,,,,,,,,,,,,,,,,,,,,,,,,,,,,,,,clips/clip_weißt_17_sub_0.mp4,audios/clip_weißt_17_sub_0.mp3,audiovisual,269.38852140001836,269.7710780999914,269.97107349999715,269.97107349999715,269.970619266682,281.488597699994,281.7039882999961,281.4887633000035,[],281.5850015000033,281.58503750001546,None,281.58507190001546,281.5850935000053,None,,,,,,,,,,,,,,305,001,2026-03-30_17h30.24.825,exp_sofc,,2025.2.3,59.896809781791525,2026-03-30 17h30.25.486998 +0200,
,7,0,7,,,,,,,,,,,,,,,,,,,,,,2,None,2.953993500006618,None,,,,,,,,,,,7,0,7,0,281.7039882999961,,,,,,,,,,,,,,,,,,,,,,,,,,,,,,,,,,,,,,,,,,,,,,clips/clip_weißt_22_sub_0.mp4,audios/clip_weißt_22_sub_0.mp3,audiovisual,281.69860880001215,282.0868281000003,282.287273199996,282.287273199996,282.28715526668043,,293.48880789999384,293.37239810000756,[],293.4826180000091,296.4593561000074,2,296.4594236999983,296.4594536999939,None,2,293.48880789999384,293.48880789999384,293.48880789999384,2.953993500006618,None,,,,,,,,305,001,2026-03-30_17h30.24.825,exp_sofc,,2025.2.3,59.896809781791525,2026-03-30 17h30.25.486998 +0200,
,8,0,8,,,,,,,,,,,,,,,,,,,,,,None,None,,,,,,,,,,,,,8,0,8,0,296.5646257000044,,,,,,,,,,,,,,,,,,,,,,,,,,,,,,,,,,,,,,,,,,,,,,clips/clip_wurst_32_sub_1.mp4,audios/silence.mp3,visual,296.5588939000154,296.968206199992,297.1689017000026,297.1689017000026,297.16872266665837,298.4207233999914,308.00063890000456,307.78540660001454,[7.939442800008692],307.8928297999955,307.8928663000115,None,307.89289670001017,307.89291310001863,None,,,,,,,,,,,,,,305,001,2026-03-30_17h30.24.825,exp_sofc,,2025.2.3,59.896809781791525,2026-03-30 17h30.25.486998 +0200,
,9,0,9,,,,,,,,,,,,,,,,,,,,,,1,None,6.394584299996495,None,,,,,,,,,,,9,0,9,0,308.00063890000456,,,,,,,,,,,,,,,,,,,,,,,,,,,,,,,,,,,,,,,,,,,,,,clips/clip_holo_16_sub_1.mp4,audios/silence.mp3,visual,307.9945032999967,308.4001774000062,308.6010185999912,308.6010185999912,308.60094786668583,309.8533337000117,320.7286727000028,320.62060620001284,[10.790025299997069],320.7242394000059,327.14034000001266,1,327.1403927000065,327.1404097000195,None,1,320.7286727000028,320.7286727000028,320.7286727000028,6.394584299996495,None,,,,,,,,305,001,2026-03-30_17h30.24.825,exp_sofc,,2025.2.3,59.896809781791525,2026-03-30 17h30.25.486998 +0200,
,10,0,10,,,,,,,,,,,,,,,,,,,,,,None,None,,,,,,,,,,,,,10,0,10,0,327.26434940000763,,,,,,,,,,,,,,,,,,,,,,,,,,,,,,,,,,,,,,,,,,,,,,clips/clip_herz_07_sub_2.mp4,audios/clip_herz_07_sub_2.mp3,audiovisual,327.25832880000235,327.64045229999465,327.8423010999977,327.8423010999977,327.84092086667465,340.05019720000564,340.05019720000564,339.8599411000032,[11.08576489999541],339.93940120001207,339.9394334999961,None,339.9394593000179,339.93947599999956,None,,,,,,,,,,,,,,305,001,2026-03-30_17h30.24.825,exp_sofc,,2025.2.3,59.896809781791525,2026-03-30 17h30.25.486998 +0200,
,11,0,11,,,,,,,,,,,,,,,,,,,,,,None,None,,,,,,,,,,,,,11,0,11,0,340.05019720000564,,,,,,,,,,,,,,,,,,,,,,,,,,,,,,,,,,,,,,,,,,,,,,clips/clip_wurst_20_nosub_0.mp4,audios/clip_wurst_20_nosub_0.mp3,audiovisual,340.0457976000034,340.45156909999787,340.6523523000069,340.6523523000069,340.6517286666824,350.68511419999413,350.89148690001457,350.6853505000181,[],350.7840787000023,350.7841330000083,None,350.78417420000187,350.78419239999494,None,,,,,,,,,,,,,,305,001,2026-03-30_17h30.24.825,exp_sofc,,2025.2.3,59.896809781791525,2026-03-30 17h30.25.486998 +0200,
,12,0,12,,,,,,,,,,,,,,,,,,,,,,3,None,3.97029259998817,None,,,,,,,,,,,12,0,12,0,350.89148690001457,,,,,,,,,,,,,,,,,,,,,,,,,,,,,,,,,,,,,,,,,,,,,,clips/clip_wurst_24_nosub_1.mp4,audios/silence.mp3,visual,350.8862391000148,351.29328350001015,351.4940972000186,351.4940972000186,351.49360926667964,352.7455775999988,362.90917450000416,362.8118957999977,[],362.90379139999277,366.8934997000033,3,366.8935665000172,366.89359560000594,None,3,362.90917450000416,362.90917450000416,362.90917450000416,3.97029259998817,None,,,,,,,,305,001,2026-03-30_17h30.24.825,exp_sofc,,2025.2.3,59.896809781791525,2026-03-30 17h30.25.486998 +0200,
,13,0,13,,,,,,,,,,,,,,,,,,,,,,1,None,4.089002699998673,None,,,,,,,,,,,13,0,13,0,366.99783050001133,,,,,,,,,,,,,,,,,,,,,,,,,,,,,,,,,,,,,,,,,,,,,,clips/clip_herz_04_nosub_0.mp4,audios/clip_herz_04_nosub_0.mp3,audiovisual,366.9929187000089,367.4018685000192,367.60263690000284,367.60263690000284,367.6025489666829,378.6190617000102,378.733710600005,378.6192004000186,[8.204776900005527],378.7281023999967,382.82444140000734,1,382.8245012999978,382.82452550000744,None,1,378.733710600005,378.733710600005,378.733710600005,4.089002699998673,None,,,,,,,,305,001,2026-03-30_17h30.24.825,exp_sofc,,2025.2.3,59.896809781791525,2026-03-30 17h30.25.486998 +0200,
,14,0,14,,,,,,,,,,,,,,,,,,,,,,None,None,,,,,,,,,,,,,14,0,14,0,382.9309290999954,,,,,,,,,,,,,,,,,,,,,,,,,,,,,,,,,,,,,,,,,,,,,,clips/clip_holo_02_sub_2.mp4,audios/silence.mp3,visual,382.9259415999986,383.33300450001843,383.5349099000159,383.5349099000159,383.53432116666613,384.786728600011,394.91553480000584,394.7175922000024,[8.472008900018409],394.81128069999977,394.8113141999929,None,394.81134159999783,394.8113559000194,None,,,,,,,,,,,,,,305,001,2026-03-30_17h30.24.825,exp_sofc,,2025.2.3,59.896809781791525,2026-03-30 17h30.25.486998 +0200,
,15,0,15,,,,,,,,,,,,,,,,,,,,,,None,None,,,,,,,,,,,,,15,0,15,0,394.91553480000584,,,,,,,,,,,,,,,,,,,,,,,,,,,,,,,,,,,,,,,,,,,,,,clips/clip_wurst_29_sub_1.mp4,audios/clip_wurst_29_sub_1.mp3,audiovisual,394.9100948999985,395.32661780001945,395.5280003999942,395.5280003999942,395.52758956666025,407.5459114999976,407.77667580000707,407.54603530000895,[],407.645668400015,407.6457073999918,None,407.6457760000194,407.64580530000967,None,,,,,,,,,,,,,,305,001,2026-03-30_17h30.24.825,exp_sofc,,2025.2.3,59.896809781791525,2026-03-30 17h30.25.486998 +0200,
,16,0,16,,,,,,,,,,,,,,,,,,,,,,None,None,,,,,,,,,,,,,16,0,16,0,407.77667580000707,,,,,,,,,,,,,,,,,,,,,,,,,,,,,,,,,,,,,,,,,,,,,,clips/clip_claude_20_nosub_1.mp4,audios/clip_claude_20_nosub_1.mp3,audiovisual,407.7717992000107,408.1471007000073,408.3480309000006,408.3480309000006,408.3474595666669,420.3656246000028,420.59388729999773,420.36579979999806,[7.206674699991709],420.4847408999922,420.4848297999997,None,420.48488410000573,420.4849108000053,None,,,,,,,,,,,,,,305,001,2026-03-30_17h30.24.825,exp_sofc,,2025.2.3,59.896809781791525,2026-03-30 17h30.25.486998 +0200,
,17,0,17,,,,,,,,,,,,,,,,,,,,,,None,None,,,,,,,,,,,,,17,0,17,0,420.59388729999773,,,,,,,,,,,,,,,,,,,,,,,,,,,,,,,,,,,,,,,,,,,,,,clips/clip_weißt_26_nosub_1.mp4,audios/clip_weißt_26_nosub_1.mp3,audiovisual,420.5898264000134,421.0001302000019,421.20106340001803,421.1846602000005,421.1844554666643,431.41675160001614,431.6154116000107,431.4169277000183,[7.77985570000601],431.5229692000139,431.5230433999968,None,431.5231063000101,431.52314269999624,None,,,,,,,,,,,,,,305,001,2026-03-30_17h30.24.825,exp_sofc,,2025.2.3,59.896809781791525,2026-03-30 17h30.25.486998 +0200,
,18,0,18,,,,,,,,,,,,,,,,,,,,,,3,None,11.075386099983007,None,,,,,,,,,,,18,0,18,0,431.6154116000107,,,,,,,,,,,,,,,,,,,,,,,,,,,,,,,,,,,,,,,,,,,,,,clips/clip_lied_21_nosub_2.mp4,audios/silence.mp3,visual,431.60967219999293,432.02541329999804,432.2264119000174,432.2264119000174,432.2259523666619,433.4800058999972,443.85700310001266,443.7439046000072,"[5.820599300001049, 10.999342299997807]",443.8518347000063,454.9415406000044,3,454.9416027000116,454.9416268999921,None,1,443.85700310001266,443.85700310001266,443.85700310001266,11.075386099983007,None,,,,,,,,305,001,2026-03-30_17h30.24.825,exp_sofc,,2025.2.3,59.896809781791525,2026-03-30 17h30.25.486998 +0200,
,19,0,19,,,,,,,,,,,,,,,,,,,,,,None,None,,,,,,,,,,,,,19,0,19,0,455.06110560000525,,,,,,,,,,,,,,,,,,,,,,,,,,,,,,,,,,,,,,,,,,,,,,clips/clip_claude_05_nosub_2.mp4,audios/clip_claude_05_nosub_2.mp3,audiovisual,455.0558419000008,455.4423561000149,455.6426972000045,455.6426972000045,455.64237686666115,,467.1494650999957,466.9443038000027,[4.995324699993944],467.02871770001366,467.0287491999916,None,467.02877540001646,467.02879119999125,None,,,,,,,,,,,,,,305,001,2026-03-30_17h30.24.825,exp_sofc,,2025.2.3,59.896809781791525,2026-03-30 17h30.25.486998 +0200,
,20,0,20,,,,,,,,,,,,,,,,,,,,,,None,None,,,,,,,,,,,,,20,0,20,0,467.1494650999957,,,,,,,,,,,,,,,,,,,,,,,,,,,,,,,,,,,,,,,,,,,,,,clips/clip_weißt_01_nosub_1.mp4,audios/clip_weißt_01_nosub_1.mp3,audiovisual,467.1439032999915,467.5369852000149,467.7368269000144,467.7368269000144,467.7364268666754,478.7534592000011,478.9683156000101,478.7535758000158,[6.498788400000194],478.84927189999144,478.8493080000044,None,478.8493545000092,478.8493940999906,None,,,,,,,,,,,,,,305,001,2026-03-30_17h30.24.825,exp_sofc,,2025.2.3,59.896809781791525,2026-03-30 17h30.25.486998 +0200,
,21,0,21,,,,,,,,,,,,,,,,,,,,,,None,None,,,,,,,,,,,,,21,0,21,0,478.9683156000101,,,,,,,,,,,,,,,,,,,,,,,,,,,,,,,,,,,,,,,,,,,,,,clips/clip_hund_04_sub_0.mp4,audios/clip_hund_04_sub_0.mp3,audiovisual,478.96415800001705,479.3529901000147,479.5543437000015,479.5543437000015,479.5540415666803,489.0850591000053,489.285529899993,489.0852555000165,[],489.1860172000015,489.1861004999955,None,489.1861476000049,489.1861656999972,None,,,,,,,,,,,,,,305,001,2026-03-30_17h30.24.825,exp_sofc,,2025.2.3,59.896809781791525,2026-03-30 17h30.25.486998 +0200,
,22,0,22,,,,,,,,,,,,,,,,,,,,,,None,None,,,,,,,,,,,,,22,0,22,0,489.285529899993,,,,,,,,,,,,,,,,,,,,,,,,,,,,,,,,,,,,,,,,,,,,,,clips/clip_lied_14_sub_0.mp4,audios/silence.mp3,visual,489.2795271000068,489.694975099992,489.89485559999594,489.89485559999594,489.894169966665,491.1463030000159,499.77832129999297,499.5928305000125,[],499.68052409999655,499.6806016000046,None,499.6806771999982,499.6806986000156,None,,,,,,,,,,,,,,305,001,2026-03-30_17h30.24.825,exp_sofc,,2025.2.3,59.896809781791525,2026-03-30 17h30.25.486998 +0200,
,23,0,23,,,,,,,,,,,,,,,,,,,,,,3,None,8.95825940000941,None,,,,,,,,,,,23,0,23,0,499.77832129999297,,,,,,,,,,,,,,,,,,,,,,,,,,,,,,,,,,,,,,,,,,,,,,clips/clip_hund_03_sub_1.mp4,audios/silence.mp3,visual,499.7741285999946,500.1797673999972,500.3803698999982,500.3803698999982,500.3803034666673,501.6317054000101,512.3714225000003,512.266148900002,[7.263170899997931],512.367201200017,521.3379655000172,3,521.3380245000008,521.3380503999942,None,1,512.3714225000003,512.3714225000003,512.3714225000003,8.95825940000941,None,,,,,,,,305,001,2026-03-30_17h30.24.825,exp_sofc,,2025.2.3,59.896809781791525,2026-03-30 17h30.25.486998 +0200,
,24,0,24,,,,,,,,,,,,,,,,,,,,,,None,None,,,,,,,,,,,,,24,0,24,0,521.4477793000115,,,,,,,,,,,,,,,,,,,,,,,,,,,,,,,,,,,,,,,,,,,,,,clips/clip_lied_09_sub_1.mp4,audios/silence.mp3,visual,521.4413783999917,521.8472933000012,522.0482854000002,522.0482854000002,522.047693566685,523.301134600013,532.6918304999999,532.4823269000044,[],532.565937700012,532.5659706000006,None,532.5659993000154,532.5660151999909,None,,,,,,,,,,,,,,305,001,2026-03-30_17h30.24.825,exp_sofc,,2025.2.3,59.896809781791525,2026-03-30 17h30.25.486998 +0200,
,25,0,25,,,,,,,,,,,,,,,,,,,,,,None,None,,,,,,,,,,,,,25,0,25,0,532.6918304999999,,,,,,,,,,,,,,,,,,,,,,,,,,,,,,,,,,,,,,,,,,,,,,clips/clip_hund_30_sub_0.mp4,audios/clip_hund_30_sub_0.mp3,audiovisual,532.6867645000166,533.0757867000066,533.2759503000125,533.2759503000125,533.2759996666612,545.5018596000155,545.5018596000155,545.2940453999909,[],545.3858438000025,545.3858963999955,None,545.3859344999946,545.3859540999983,None,,,,,,,,,,,,,,305,001,2026-03-30_17h30.24.825,exp_sofc,,2025.2.3,59.896809781791525,2026-03-30 17h30.25.486998 +0200,
,26,0,26,,,,,,,,,,,,,,,,,,,,,,None,None,,,,,,,,,,,,,26,0,26,0,545.5018596000155,,,,,,,,,,,,,,,,,,,,,,,,,,,,,,,,,,,,,,,,,,,,,,clips/clip_claude_23_nosub_0.mp4,audios/clip_claude_23_nosub_0.mp3,audiovisual,545.496521699999,545.8865132000064,546.087425500009,546.087425500009,546.0873518666815,558.4515722999931,558.4515722999931,558.2392383000115,[],558.341537100001,558.3415728000109,None,558.3416202999942,558.3416678000067,None,,,,,,,,,,,,,,305,001,2026-03-30_17h30.24.825,exp_sofc,,2025.2.3,59.896809781791525,2026-03-30 17h30.25.486998 +0200,
,27,0,27,,,,,,,,,,,,,,,,,,,,,,None,None,,,,,,,,,,,,,27,0,27,0,558.4515722999931,,,,,,,,,,,,,,,,,,,,,,,,,,,,,,,,,,,,,,,,,,,,,,clips/clip_herz_12_sub_0.mp4,audios/clip_herz_12_sub_0.mp3,audiovisual,558.4464387999906,558.8520894999965,559.0521354000084,559.0521354000084,559.0521241666613,,568.343924899993,568.1561924999987,[6.508954399992945],568.2378041000047,568.2379077000078,None,568.2379684000043,568.2379989000037,None,,,,,,,,,,,,,,305,001,2026-03-30_17h30.24.825,exp_sofc,,2025.2.3,59.896809781791525,2026-03-30 17h30.25.486998 +0200,
,28,0,28,,,,,,,,,,,,,,,,,,,,,,None,None,,,,,,,,,,,,,28,0,28,0,568.343924899993,,,,,,,,,,,,,,,,,,,,,,,,,,,,,,,,,,,,,,,,,,,,,,clips/clip_lied_01_sub_1.mp4,audios/clip_lied_01_sub_1.mp3,audiovisual,568.3402207000181,568.741683100001,568.9422169000027,568.9422169000027,568.9418947666747,578.9755264999985,579.150436099997,578.9756914000027,[5.467558700009249],579.0599306999939,579.0599885999982,None,579.0600706000114,579.0601008000085,None,,,,,,,,,,,,,,305,001,2026-03-30_17h30.24.825,exp_sofc,,2025.2.3,59.896809781791525,2026-03-30 17h30.25.486998 +0200,
,29,0,29,,,,,,,,,,,,,,,,,,,,,,None,None,,,,,,,,,,,,,29,0,29,0,579.150436099997,,,,,,,,,,,,,,,,,,,,,,,,,,,,,,,,,,,,,,,,,,,,,,clips/clip_hund_21_sub_1.mp4,audios/silence.mp3,visual,579.144468500017,579.5751615999907,579.7766521000012,579.7766521000012,579.7755714666603,581.0274895000039,590.0304499999911,589.808884099999,[6.552653899998404],589.9124395000108,589.9124776000099,None,589.9125110000023,589.9125406999956,None,,,,,,,,,,,,,,305,001,2026-03-30_17h30.24.825,exp_sofc,,2025.2.3,59.896809781791525,2026-03-30 17h30.25.486998 +0200,
,30,0,30,,,,,,,,,,,,,,,,,,,,,,4,None,4.219075300003169,None,,,,,,,,,,,30,0,30,0,590.0304499999911,,,,,,,,,,,,,,,,,,,,,,,,,,,,,,,,,,,,,,,,,,,,,,clips/clip_lied_16_sub_2.mp4,audios/clip_lied_16_sub_2.mp3,audiovisual,590.0249842000194,590.4253742000146,590.6259624999948,590.6259624999948,590.6257069666792,,601.3308447000163,601.2250000000058,[6.923054799990496],601.325015600014,605.5666244000022,4,605.5666900000069,605.5667184999911,None,4,601.3308447000163,601.3308447000163,601.3308447000163,4.219075300003169,None,,,,,,,,305,001,2026-03-30_17h30.24.825,exp_sofc,,2025.2.3,59.896809781791525,2026-03-30 17h30.25.486998 +0200,
,31,0,31,,,,,,,,,,,,,,,,,,,,,,None,None,,,,,,,,,,,,,31,0,31,0,605.6828830000013,,,,,,,,,,,,,,,,,,,,,,,,,,,,,,,,,,,,,,,,,,,,,,clips/clip_hund_08_nosub_1.mp4,audios/clip_hund_08_nosub_1.mp3,audiovisual,605.6783172000141,606.0670034000068,606.2677216000156,606.2677216000156,606.2673702666691,616.2821889000188,616.4851249000058,616.2823454000172,[],616.371695800015,616.3717268000182,None,616.3717538999917,616.3717690999911,None,,,,,,,,,,,,,,305,001,2026-03-30_17h30.24.825,exp_sofc,,2025.2.3,59.896809781791525,2026-03-30 17h30.25.486998 +0200,
,32,0,32,,,,,,,,,,,,,,,,,,,,,,None,None,,,,,,,,,,,,,32,0,32,0,616.4851249000058,,,,,,,,,,,,,,,,,,,,,,,,,,,,,,,,,,,,,,,,,,,,,,clips/clip_claude_26_nosub_0.mp4,audios/clip_claude_26_nosub_0.mp3,audiovisual,616.480899999995,616.875211000006,617.0757616000192,617.0757616000192,617.0757320666783,627.9936223000113,628.194722699991,627.9937627000036,[],628.0935189000156,628.0935622999968,None,628.0936341999914,628.093661699997,None,,,,,,,,,,,,,,305,001,2026-03-30_17h30.24.825,exp_sofc,,2025.2.3,59.896809781791525,2026-03-30 17h30.25.486998 +0200,
,33,0,33,,,,,,,,,,,,,,,,,,,,,,4,None,4.334978600003524,None,,,,,,,,,,,33,0,33,0,628.194722699991,,,,,,,,,,,,,,,,,,,,,,,,,,,,,,,,,,,,,,,,,,,,,,clips/clip_wurst_13_sub_0.mp4,audios/clip_wurst_13_sub_0.mp3,audiovisual,628.189607200009,628.6027881999908,628.8021391000075,628.8021391000075,628.8018254666861,638.4340266000072,638.5422321000078,638.434196999995,[],638.5369256999984,642.8835812000034,4,642.8836441000167,642.8836691000033,None,4,638.5422321000078,638.5422321000078,638.5422321000078,4.334978600003524,None,,,,,,,,305,001,2026-03-30_17h30.24.825,exp_sofc,,2025.2.3,59.896809781791525,2026-03-30 17h30.25.486998 +0200,
,34,0,34,,,,,,,,,,,,,,,,,,,,,,None,None,,,,,,,,,,,,,34,0,34,0,642.9843775999907,,,,,,,,,,,,,,,,,,,,,,,,,,,,,,,,,,,,,,,,,,,,,,clips/clip_hund_32_nosub_1.mp4,audios/silence.mp3,visual,642.9776557000005,643.3926279000007,643.5931303999969,643.5931303999969,643.5923350666747,644.8444701000117,653.8059978999954,653.6254130000016,[5.697154599998612],653.7087746000034,653.7088063000119,None,653.70883280001,653.7088484000124,None,,,,,,,,,,,,,,305,001,2026-03-30_17h30.24.825,exp_sofc,,2025.2.3,59.896809781791525,2026-03-30 17h30.25.486998 +0200,
,35,0,35,,,,,,,,,,,,,,,,,,,,,,None,None,,,,,,,,,,,,,35,0,35,0,653.8059978999954,,,,,,,,,,,,,,,,,,,,,,,,,,,,,,,,,,,,,,,,,,,,,,clips/clip_wurst_12_sub_0.mp4,audios/silence.mp3,visual,653.8001734999998,654.2090805000043,654.4097835000139,654.4097835000139,654.4093506666579,655.6626530000067,663.2455241999996,663.0396255000087,[],663.1321960999921,663.1322317000013,None,663.1322719000163,663.1323031999927,None,,,,,,,,,,,,,,305,001,2026-03-30_17h30.24.825,exp_sofc,,2025.2.3,59.896809781791525,2026-03-30 17h30.25.486998 +0200,
,36,0,36,,,,,,,,,,,,,,,,,,,,,,None,None,,,,,,,,,,,,,36,0,36,0,663.2455241999996,,,,,,,,,,,,,,,,,,,,,,,,,,,,,,,,,,,,,,,,,,,,,,clips/clip_hund_24_nosub_1.mp4,audios/clip_hund_24_nosub_1.mp3,audiovisual,663.2412559000077,663.6319206000189,663.8325756000122,663.8325756000122,663.8324776666743,676.059553500003,676.059553500003,675.8512045000098,[8.242426600016188],675.9552073999948,675.9552433000063,None,675.9552829000168,675.9553266000003,None,,,,,,,,,,,,,,305,001,2026-03-30_17h30.24.825,exp_sofc,,2025.2.3,59.896809781791525,2026-03-30 17h30.25.486998 +0200,
,37,0,37,,,,,,,,,,,,,,,,,,,,,,None,None,,,,,,,,,,,,,37,0,37,0,676.059553500003,,,,,,,,,,,,,,,,,,,,,,,,,,,,,,,,,,,,,,,,,,,,,,clips/clip_claude_08_nosub_0.mp4,audios/silence.mp3,visual,676.0539415999956,676.460275999998,676.6613197000115,676.6613197000115,676.6605059666656,677.9126741999935,686.5198864999984,686.2937780999928,[],686.3969990000187,686.397037799994,None,686.3970726999978,686.3970970000082,None,,,,,,,,,,,,,,305,001,2026-03-30_17h30.24.825,exp_sofc,,2025.2.3,59.896809781791525,2026-03-30 17h30.25.486998 +0200,
,38,0,38,,,,,,,,,,,,,,,,,,,,,,None,None,,,,,,,,,,,,,38,0,38,0,686.5198864999984,,,,,,,,,,,,,,,,,,,,,,,,,,,,,,,,,,,,,,,,,,,,,,clips/clip_holo_14_sub_0.mp4,audios/clip_holo_14_sub_0.mp3,audiovisual,686.5147316000075,686.9104364000086,687.1120526000159,687.1120526000159,687.1103374666748,697.1429589000181,697.3469089000137,697.1431043000193,[],697.2335855000129,697.2336579000112,None,697.2337016999954,697.2337179000024,None,,,,,,,,,,,,,,305,001,2026-03-30_17h30.24.825,exp_sofc,,2025.2.3,59.896809781791525,2026-03-30 17h30.25.486998 +0200,
,39,0,39,,,,,,,,,,,,,,,,,,,,,,None,None,,,,,,,,,,,,,39,0,39,0,697.3469089000137,,,,,,,,,,,,,,,,,,,,,,,,,,,,,,,,,,,,,,,,,,,,,,clips/clip_herz_02_nosub_0.mp4,audios/clip_herz_02_nosub_0.mp3,audiovisual,697.3432796999987,697.735284800001,697.9357402000169,697.9357402000169,697.9354724666666,,710.5411052000127,710.3399338000163,[9.722308800002793],710.429430499993,710.4295059000142,None,710.4295850000053,710.4296142999956,None,,,,,,,,,,,,,,305,001,2026-03-30_17h30.24.825,exp_sofc,,2025.2.3,59.896809781791525,2026-03-30 17h30.25.486998 +0200,
,40,0,40,,,,,,,,,,,,,,,,,,,,,,None,None,,,,,,,,,,,,,40,0,40,0,710.5411052000127,,,,,,,,,,,,,,,,,,,,,,,,,,,,,,,,,,,,,,,,,,,,,,clips/clip_holo_09_nosub_2.mp4,audios/clip_holo_09_nosub_2.mp3,audiovisual,710.5374331999919,710.9308646999998,711.1314886000182,711.1314886000182,711.1314365666806,722.5825589000015,722.7729808000149,722.5826915999933,[],722.6642922000028,722.664328999992,None,722.6643724000023,722.6644101999991,None,,,,,,,,,,,,,,305,001,2026-03-30_17h30.24.825,exp_sofc,,2025.2.3,59.896809781791525,2026-03-30 17h30.25.486998 +0200,
,41,0,41,,,,,,,,,,,,,,,,,,,,,,None,None,,,,,,,,,,,,,41,0,41,0,722.7729808000149,,,,,,,,,,,,,,,,,,,,,,,,,,,,,,,,,,,,,,,,,,,,,,clips/clip_hund_07_nosub_1.mp4,audios/silence.mp3,visual,722.766630099999,723.172297800018,723.3737927000038,723.3737927000038,723.3726802666827,724.6254120999947,735.1930752999906,734.9914081000024,[7.419140000012703],735.0893225000182,735.089366900007,None,735.0894110999943,735.0894378999947,None,,,,,,,,,,,,,,305,001,2026-03-30_17h30.24.825,exp_sofc,,2025.2.3,59.896809781791525,2026-03-30 17h30.25.486998 +0200,
,42,0,42,,,,,,,,,,,,,,,,,,,,,,None,None,,,,,,,,,,,,,42,0,42,0,735.1930752999906,,,,,,,,,,,,,,,,,,,,,,,,,,,,,,,,,,,,,,,,,,,,,,clips/clip_weißt_23_nosub_1.mp4,audios/silence.mp3,visual,735.186714600015,735.6013163000171,735.8023295000021,735.8023295000021,735.8008917666778,737.0539658000052,747.426057100005,747.2182864999922,[8.98414079999202],747.3264534000191,747.3265353000024,None,747.3265872999909,747.3266176000179,None,,,,,,,,,,,,,,305,001,2026-03-30_17h30.24.825,exp_sofc,,2025.2.3,59.896809781791525,2026-03-30 17h30.25.486998 +0200,
,43,0,43,,,,,,,,,,,,,,,,,,,,,,None,None,,,,,,,,,,,,,43,0,43,0,747.426057100005,,,,,,,,,,,,,,,,,,,,,,,,,,,,,,,,,,,,,,,,,,,,,,clips/clip_holo_28_sub_0.mp4,audios/silence.mp3,visual,747.419948099996,747.8275420000136,748.0294101000181,748.0294101000181,748.0277593666726,749.2796622000169,756.7693770000187,756.5578831000021,[],756.6614929999923,756.6615435999993,None,756.6616227999912,756.6616603000148,None,,,,,,,,,,,,,,305,001,2026-03-30_17h30.24.825,exp_sofc,,2025.2.3,59.896809781791525,2026-03-30 17h30.25.486998 +0200,
,44,0,44,,,,,,,,,,,,,,,,,,,,,,None,None,,,,,,,,,,,,,44,0,44,0,756.7693770000187,,,,,,,,,,,,,,,,,,,,,,,,,,,,,,,,,,,,,,,,,,,,,,clips/clip_hund_09_sub_2.mp4,audios/clip_hund_09_sub_2.mp3,audiovisual,756.7643265000079,757.1703882000002,757.3708231000055,757.3708231000055,757.3708223666802,,769.1173580000177,768.9228280000098,"[6.812729500001296, 11.109474700002465]",769.0055305999995,769.0055724999984,None,769.0056063999946,769.0056265000021,None,,,,,,,,,,,,,,305,001,2026-03-30_17h30.24.825,exp_sofc,,2025.2.3,59.896809781791525,2026-03-30 17h30.25.486998 +0200,
,45,0,45,,,,,,,,,,,,,,,,,,,,,,None,None,,,,,,,,,,,,,45,0,45,0,769.1173580000177,,,,,,,,,,,,,,,,,,,,,,,,,,,,,,,,,,,,,,,,,,,,,,clips/clip_weißt_11_nosub_0.mp4,audios/clip_weißt_11_nosub_0.mp3,audiovisual,769.1129214999964,769.5143130999932,769.7145381000009,769.7145381000009,769.7142486666601,779.9469021999976,779.9469021999976,779.7301825000031,[],779.8205328000186,779.8205735000083,None,779.8206087000144,779.8206281000166,None,,,,,,,,,,,,,,305,001,2026-03-30_17h30.24.825,exp_sofc,,2025.2.3,59.896809781791525,2026-03-30 17h30.25.486998 +0200,
,46,0,46,,,,,,,,,,,,,,,,,,,,,,3,None,3.3833121999923605,None,,,,,,,,,,,46,0,46,0,779.9469021999976,,,,,,,,,,,,,,,,,,,,,,,,,,,,,,,,,,,,,,,,,,,,,,clips/clip_weißt_15_sub_1.mp4,audios/clip_weißt_15_sub_1.mp3,audiovisual,779.9403426999925,780.3311806000129,780.5319633000181,780.5319633000181,780.5310927666762,791.5413723000092,791.5413723000092,791.4483257000102,[6.054605300014373],791.5363170999917,794.9289940000162,3,794.9290559999936,794.929083199997,None,3,791.5413723000092,791.5413723000092,791.5413723000092,3.3833121999923605,None,,,,,,,,305,001,2026-03-30_17h30.24.825,exp_sofc,,2025.2.3,59.896809781791525,2026-03-30 17h30.25.486998 +0200,
,47,0,47,,,,,,,,,,,,,,,,,,,,,,None,None,,,,,,,,,,,,,47,0,47,0,795.0417401000159,,,,,,,,,,,,,,,,,,,,,,,,,,,,,,,,,,,,,,,,,,,,,,clips/clip_hund_01_nosub_0.mp4,audios/clip_hund_01_nosub_0.mp3,audiovisual,795.0370807000145,795.4428086999978,795.6437739999965,795.6437739999965,795.6433185666722,,806.6444309999933,806.4438867999997,[],806.539989300014,806.5400232000102,None,806.5400511000189,806.5400684000051,None,,,,,,,,,,,,,,305,001,2026-03-30_17h30.24.825,exp_sofc,,2025.2.3,59.896809781791525,2026-03-30 17h30.25.486998 +0200,
,48,0,48,,,,,,,,,,,,,,,,,,,,,,4,None,14.177490600006422,None,,,,,,,,,,,48,0,48,0,806.6444309999933,,,,,,,,,,,,,,,,,,,,,,,,,,,,,,,,,,,,,,,,,,,,,,clips/clip_hund_29_nosub_0.mp4,audios/silence.mp3,visual,806.6381780999945,807.0528126000136,807.25474080001,807.25474080001,807.2528942666579,808.5051104000013,818.7680380000093,818.6711856000184,[10.722954099997878],818.7626365000033,832.951437700016,4,832.9515006000001,832.9515269999974,None,4,818.7680380000093,818.7680380000093,818.7680380000093,14.177490600006422,None,,,,,,,,305,001,2026-03-30_17h30.24.825,exp_sofc,,2025.2.3,59.896809781791525,2026-03-30 17h30.25.486998 +0200,
,49,0,49,,,,,,,,,,,,,,,,,,,,,,None,None,,,,,,,,,,,,,49,0,49,0,833.043330000015,,,,,,,,,,,,,,,,,,,,,,,,,,,,,,,,,,,,,,,,,,,,,,clips/clip_claude_27_nosub_0.mp4,audios/silence.mp3,visual,833.0377814999956,833.4615036000032,833.6615761000139,833.6615761000139,833.6612666666663,834.9128246000037,845.8640649000008,845.6806100000103,[],845.7638173000014,845.7638501000183,None,845.7638770999911,845.763892100018,None,,,,,,,,,,,,,,305,001,2026-03-30_17h30.24.825,exp_sofc,,2025.2.3,59.896809781791525,2026-03-30 17h30.25.486998 +0200,
,50,0,50,,,,,,,,,,,,,,,,,,,,,,None,None,,,,,,,,,,,,,50,0,50,0,845.8640649000008,,,,,,,,,,,,,,,,,,,,,,,,,,,,,,,,,,,,,,,,,,,,,,clips/clip_claude_11_nosub_0.mp4,audios/silence.mp3,visual,845.8579912999994,846.264122499997,846.4643151999917,846.4643151999917,846.465106266671,847.7159594999976,856.7141383000126,856.496352999995,[],856.599572200008,856.5996236999927,None,856.5996658999939,856.5996940000041,None,,,,,,,,,,,,,,305,001,2026-03-30_17h30.24.825,exp_sofc,,2025.2.3,59.896809781791525,2026-03-30 17h30.25.486998 +0200,
,51,0,51,,,,,,,,,,,,,,,,,,,,,,None,None,,,,,,,,,,,,,51,0,51,0,856.7141383000126,,,,,,,,,,,,,,,,,,,,,,,,,,,,,,,,,,,,,,,,,,,,,,clips/clip_weißt_04_sub_0.mp4,audios/clip_weißt_04_sub_0.mp3,audiovisual,856.7095629000105,857.1138913000177,857.314979799994,857.314979799994,857.3148191666735,,867.630779500003,867.4167860000161,[],867.5295753999962,867.5296570000064,None,867.5297236000188,867.5297532000113,None,,,,,,,,,,,,,,305,001,2026-03-30_17h30.24.825,exp_sofc,,2025.2.3,59.896809781791525,2026-03-30 17h30.25.486998 +0200,
,52,0,52,,,,,,,,,,,,,,,,,,,,,,None,None,,,,,,,,,,,,,52,0,52,0,867.630779500003,,,,,,,,,,,,,,,,,,,,,,,,,,,,,,,,,,,,,,,,,,,,,,clips/clip_holo_26_nosub_2.mp4,audios/silence.mp3,visual,867.6244107999955,868.0303349000169,868.2320293000084,868.2320293000084,868.231318166658,869.4824889000156,877.6415627000097,877.4459881999937,"[6.51547159999609, 8.451167799998075]",877.5412215999968,877.541292400012,None,877.5413392999908,877.5413556999993,None,,,,,,,,,,,,,,305,001,2026-03-30_17h30.24.825,exp_sofc,,2025.2.3,59.896809781791525,2026-03-30 17h30.25.486998 +0200,
,53,0,53,,,,,,,,,,,,,,,,,,,,,,None,None,,,,,,,,,,,,,53,0,53,0,877.6415627000097,,,,,,,,,,,,,,,,,,,,,,,,,,,,,,,,,,,,,,,,,,,,,,clips/clip_wurst_18_sub_0.mp4,audios/silence.mp3,visual,877.6355555999908,878.0543880000187,878.2547777,878.2547777,878.2546660666742,879.5062412999978,888.4736962000025,888.2702371999912,[],888.358141100005,888.3581900999998,None,888.3582491000125,888.3582813999965,None,,,,,,,,,,,,,,305,001,2026-03-30_17h30.24.825,exp_sofc,,2025.2.3,59.896809781791525,2026-03-30 17h30.25.486998 +0200,
,54,0,54,,,,,,,,,,,,,,,,,,,,,,None,None,,,,,,,,,,,,,54,0,54,0,888.4736962000025,,,,,,,,,,,,,,,,,,,,,,,,,,,,,,,,,,,,,,,,,,,,,,clips/clip_claude_21_nosub_1.mp4,audios/silence.mp3,visual,888.4673921999929,888.8625311999931,889.0630906000151,889.0630906000151,889.0627429666677,890.3153681000113,901.5306744000118,901.3323010000167,[10.361534299998311],901.4265934000141,901.4266273000103,None,901.4266639999987,901.4266866999969,None,,,,,,,,,,,,,,305,001,2026-03-30_17h30.24.825,exp_sofc,,2025.2.3,59.896809781791525,2026-03-30 17h30.25.486998 +0200,
,55,0,55,,,,,,,,,,,,,,,,,,,,,,None,None,,,,,,,,,,,,,55,0,55,0,901.5306744000118,,,,,,,,,,,,,,,,,,,,,,,,,,,,,,,,,,,,,,,,,,,,,,clips/clip_weißt_07_nosub_1.mp4,audios/clip_weißt_07_nosub_1.mp3,audiovisual,901.5253590999928,901.9412334999943,902.1419355999969,902.1419355999969,902.1418042666667,911.874401100009,912.0723175000167,911.8745664000162,[],911.965418000007,911.9654814999958,None,911.9655266999907,911.965543600003,None,,,,,,,,,,,,,,305,001,2026-03-30_17h30.24.825,exp_sofc,,2025.2.3,59.896809781791525,2026-03-30 17h30.25.486998 +0200,
,56,0,56,,,,,,,,,,,,,,,,,,,,,,None,None,,,,,,,,,,,,,56,0,56,0,912.0723175000167,,,,,,,,,,,,,,,,,,,,,,,,,,,,,,,,,,,,,,,,,,,,,,clips/clip_holo_17_sub_0.mp4,audios/silence.mp3,visual,912.0660596000089,912.4660887999926,912.6665828000114,912.6665828000114,912.6663923666677,913.9195113000169,922.7026077999908,922.4984600000025,[],922.579430999991,922.5794850999955,None,922.5795372000139,922.5795839999919,None,,,,,,,,,,,,,,305,001,2026-03-30_17h30.24.825,exp_sofc,,2025.2.3,59.896809781791525,2026-03-30 17h30.25.486998 +0200,
,57,0,57,,,,,,,,,,,,,,,,,,,,,,None,None,,,,,,,,,,,,,57,0,57,0,922.7026077999908,,,,,,,,,,,,,,,,,,,,,,,,,,,,,,,,,,,,,,,,,,,,,,clips/clip_hund_35_nosub_0.mp4,audios/clip_hund_35_nosub_0.mp3,audiovisual,922.6990241000021,923.0908307000063,923.2935670000152,923.2935670000152,923.2914578666716,933.7249588000122,933.9201555000036,933.7251433999918,[],933.8135035000159,933.8135531000153,None,933.8136363000085,933.8136692999979,None,,,,,,,,,,,,,,305,001,2026-03-30_17h30.24.825,exp_sofc,,2025.2.3,59.896809781791525,2026-03-30 17h30.25.486998 +0200,
,58,0,58,,,,,,,,,,,,,,,,,,,,,,None,None,,,,,,,,,,,,,58,0,58,0,933.9201555000036,,,,,,,,,,,,,,,,,,,,,,,,,,,,,,,,,,,,,,,,,,,,,,clips/clip_lied_18_nosub_2.mp4,audios/silence.mp3,visual,933.9138664999919,934.3173007000005,934.5177936000109,934.5177936000109,934.5178098666695,935.7689658000018,945.3929082000104,945.2182063999935,"[5.916576499992516, 7.660601199982921]",945.2979512000165,945.2979860999912,None,945.298020599992,945.2980396999919,None,,,,,,,,,,,,,,305,001,2026-03-30_17h30.24.825,exp_sofc,,2025.2.3,59.896809781791525,2026-03-30 17h30.25.486998 +0200,
,59,0,59,,,,,,,,,,,,,,,,,,,,,,None,space,,,112.67024050001055,None,,,,,,,,,59,0,59,0,945.3929082000104,,,,,,,,,,,,,,,,,,,,,,,,,,,,,,,,,,,,,,,,,,,,,,clips/clip_dampf_05_nosub_2.mp4,audios/clip_dampf_05_nosub_2.mp3,audiovisual,945.3882249000017,945.8011319999932,946.0022454000136,946.0022454000136,946.0015398666767,,954.7902023000061,954.7016081000038,"[4.618831300002057, 9.163474399974803]",954.7807911999989,954.7808323999925,None,954.7808743999922,1067.4657036999997,space,,,,,,,954.7902023000061,954.7902023000061,954.7902023000061,112.67024050001055,None,,,305,001,2026-03-30_17h30.24.825,exp_sofc,,2025.2.3,59.896809781791525,2026-03-30 17h30.25.486998 +0200,
,60,0,60,,,,,,,,,,,,,,,,,,,,,,None,None,,,,,,,,,,,,,60,0,60,0,1067.5611555000069,,,,,,,,,,,,,,,,,,,,,,,,,,,,,,,,,,,,,,,,,,,,,,clips/clip_lied_08_nosub_1.mp4,audios/silence.mp3,visual,1067.5546587000135,1067.9749536000018,1068.175057799992,1068.175057799992,1068.1747699666632,1069.4276432000042,1077.4644472000073,1077.2733451999957,[7.875501699978486],1077.3631056000013,1077.3631428999943,None,1077.3632245000044,1077.3632522000116,None,,,,,,,,,,,,,,305,001,2026-03-30_17h30.24.825,exp_sofc,,2025.2.3,59.896809781791525,2026-03-30 17h30.25.486998 +0200,
,61,0,61,,,,,,,,,,,,,,,,,,,,,,None,None,,,,,,,,,,,,,61,0,61,0,1077.4644472000073,,,,,,,,,,,,,,,,,,,,,,,,,,,,,,,,,,,,,,,,,,,,,,clips/clip_herz_11_sub_0.mp4,audios/clip_herz_11_sub_0.mp3,audiovisual,1077.4597962000116,1077.8650304000184,1078.0653891999973,1078.0653891999973,1078.0650708666692,,1087.558607700019,1087.3696498000063,[5.517690699984087],1087.457224200014,1087.4572630000184,None,1087.4572974000184,1087.457316200016,None,,,,,,,,,,,,,,305,001,2026-03-30_17h30.24.825,exp_sofc,,2025.2.3,59.896809781791525,2026-03-30 17h30.25.486998 +0200,
,62,0,62,,,,,,,,,,,,,,,,,,,,,,None,None,,,,,,,,,,,,,62,0,62,0,1087.558607700019,,,,,,,,,,,,,,,,,,,,,,,,,,,,,,,,,,,,,,,,,,,,,,clips/clip_holo_20_nosub_1.mp4,audios/silence.mp3,visual,1087.554181799991,1087.9729264999914,1088.1727162000025,1088.1727162000025,1088.1724610666608,1089.4244920999918,1097.8215076999913,1097.6054508000088,[3.364243499992881],1097.697789800004,1097.6978262000193,None,1097.6978681000182,1097.6978963000001,None,,,,,,,,,,,,,,305,001,2026-03-30_17h30.24.825,exp_sofc,,2025.2.3,59.896809781791525,2026-03-30 17h30.25.486998 +0200,
,63,0,63,,,,,,,,,,,,,,,,,,,,,,None,None,,,,,,,,,,,,,63,0,63,0,1097.8215076999913,,,,,,,,,,,,,,,,,,,,,,,,,,,,,,,,,,,,,,,,,,,,,,clips/clip_hund_14_sub_2.mp4,audios/clip_hund_14_sub_2.mp3,audiovisual,1097.8160398000036,1098.2041395000124,1098.404830400017,1098.404830400017,1098.404610666683,,1108.5025360000145,1108.303866800008,[6.306555799994385],1108.3948679000023,1108.3949050999945,None,1108.3949456000119,1108.3949761000113,None,,,,,,,,,,,,,,305,001,2026-03-30_17h30.24.825,exp_sofc,,2025.2.3,59.896809781791525,2026-03-30 17h30.25.486998 +0200,
,64,0,64,,,,,,,,,,,,,,,,,,,,,,None,None,,,,,,,,,,,,,64,0,64,0,1108.5025360000145,,,,,,,,,,,,,,,,,,,,,,,,,,,,,,,,,,,,,,,,,,,,,,clips/clip_holo_24_sub_2.mp4,audios/clip_holo_24_sub_2.mp3,audiovisual,1108.4969824000145,1108.8965310000058,1109.09647270001,1109.09647270001,1109.0960708666573,1118.927968300006,1119.1268637000176,1118.9281425999943,[7.785340399976121],1119.022026199993,1119.0220630000113,None,1119.022099599999,1119.0221224999987,None,,,,,,,,,,,,,,305,001,2026-03-30_17h30.24.825,exp_sofc,,2025.2.3,59.896809781791525,2026-03-30 17h30.25.486998 +0200,
,65,0,65,,,,,,,,,,,,,,,,,,,,,,None,None,,,,,,,,,,,,,65,0,65,0,1119.1268637000176,,,,,,,,,,,,,,,,,,,,,,,,,,,,,,,,,,,,,,,,,,,,,,clips/clip_lied_06_sub_1.mp4,audios/silence.mp3,visual,1119.1215034000052,1119.5211969999946,1119.7216349999944,1119.7383114999975,1119.738301666661,1120.9917835000088,1132.530912999995,1132.3573840000026,[],1132.4413380000042,1132.4413929000148,None,1132.4414360999945,1132.4414534000098,None,,,,,,,,,,,,,,305,001,2026-03-30_17h30.24.825,exp_sofc,,2025.2.3,59.896809781791525,2026-03-30 17h30.25.486998 +0200,
,66,0,66,,,,,,,,,,,,,,,,,,,,,,None,None,,,,,,,,,,,,,66,0,66,0,1132.530912999995,,,,,,,,,,,,,,,,,,,,,,,,,,,,,,,,,,,,,,,,,,,,,,clips/clip_wurst_16_nosub_0.mp4,audios/silence.mp3,visual,1132.5263913999952,1132.9426447000005,1133.1432942000101,1133.1432942000101,1133.142877666662,1134.3938678000122,1143.3488016000192,1143.1744627000007,[],1143.2587988000014,1143.2588916000095,None,1143.258943599998,1143.2589670000016,None,,,,,,,,,,,,,,305,001,2026-03-30_17h30.24.825,exp_sofc,,2025.2.3,59.896809781791525,2026-03-30 17h30.25.486998 +0200,
,67,0,67,,,,,,,,,,,,,,,,,,,,,,4,None,5.060397099994589,None,,,,,,,,,,,67,0,67,0,1143.3488016000192,,,,,,,,,,,,,,,,,,,,,,,,,,,,,,,,,,,,,,,,,,,,,,clips/clip_herz_09_sub_0.mp4,audios/silence.mp3,visual,1143.343021800014,1143.7585499999986,1143.959163899999,1143.959163899999,1143.9589030666723,1145.2108561999921,1155.574441100005,1155.4771929999988,[],1155.569014800014,1160.643602600001,4,1160.6436574000109,1160.6436754000024,None,4,1155.574441100005,1155.574441100005,1155.574441100005,5.060397099994589,None,,,,,,,,305,001,2026-03-30_17h30.24.825,exp_sofc,,2025.2.3,59.896809781791525,2026-03-30 17h30.25.486998 +0200,
,68,0,68,,,,,,,,,,,,,,,,,,,,,,None,None,,,,,,,,,,,,,68,0,68,0,1160.775734499999,,,,,,,,,,,,,,,,,,,,,,,,,,,,,,,,,,,,,,,,,,,,,,clips/clip_holo_08_nosub_2.mp4,audios/clip_holo_08_nosub_2.mp3,audiovisual,1160.7697736000118,1161.143804499996,1161.345225500001,1161.345225500001,1161.3443796666727,1172.3664098000154,1172.3664098000154,1172.1481179000111,"[8.670512600016082, 9.414770200004568]",1172.2586002000025,1172.2586330999911,None,1172.2586595000175,1172.2586755999946,None,,,,,,,,,,,,,,305,001,2026-03-30_17h30.24.825,exp_sofc,,2025.2.3,59.896809781791525,2026-03-30 17h30.25.486998 +0200,
,69,0,69,,,,,,,,,,,,,,,,,,,,,,None,None,,,,,,,,,,,,,69,0,69,0,1172.3664098000154,,,,,,,,,,,,,,,,,,,,,,,,,,,,,,,,,,,,,,,,,,,,,,clips/clip_claude_01_nosub_2.mp4,audios/clip_claude_01_nosub_2.mp3,audiovisual,1172.3607636000088,1172.7624379000044,1172.9627573000034,1172.9627573000034,1172.962605666664,1184.1293137000175,1184.1293137000175,1183.9293595000054,"[8.056980299996212, 8.76603410000098]",1184.0285179000057,1184.0285543999926,None,1184.0285908000078,1184.0286205000011,None,,,,,,,,,,,,,,305,001,2026-03-30_17h30.24.825,exp_sofc,,2025.2.3,59.896809781791525,2026-03-30 17h30.25.486998 +0200,
,70,0,70,,,,,,,,,,,,,,,,,,,,,,None,None,,,,,,,,,,,,,70,0,70,0,1184.1293137000175,,,,,,,,,,,,,,,,,,,,,,,,,,,,,,,,,,,,,,,,,,,,,,clips/clip_wurst_01_nosub_0.mp4,audios/clip_wurst_01_nosub_0.mp3,audiovisual,1184.1244085000071,1184.5393432000128,1184.7395686999953,1184.7395686999953,1184.7389060666649,1194.6883204000187,1194.8746551999939,1194.6884935999988,[],1194.780049699999,1194.7801020000188,None,1194.780170700018,1194.7802029000013,None,,,,,,,,,,,,,,305,001,2026-03-30_17h30.24.825,exp_sofc,,2025.2.3,59.896809781791525,2026-03-30 17h30.25.486998 +0200,
,71,0,71,,,,,,,,,,,,,,,,,,,,,,1,None,5.49794450000627,None,,,,,,,,,,,71,0,71,0,1194.8746551999939,,,,,,,,,,,,,,,,,,,,,,,,,,,,,,,,,,,,,,,,,,,,,,clips/clip_weißt_30_sub_2.mp4,audios/silence.mp3,visual,1194.8686687000154,1195.2909621,1195.4916849000147,1195.4916849000147,1195.4925693666776,1196.7436151000147,1207.614004300005,1207.5105754999968,"[5.225160799978767, 12.610698899981799]",1207.6088879000163,1213.1277590999962,1,1213.127820099995,1213.1278443000047,None,1,1207.614004300005,1207.614004300005,1207.614004300005,5.49794450000627,None,,,,,,,,305,001,2026-03-30_17h30.24.825,exp_sofc,,2025.2.3,59.896809781791525,2026-03-30 17h30.25.486998 +0200,
,72,0,72,,,,,,,,,,,,,,,,,,,,,,None,None,,,,,,,,,,,,,72,0,72,0,1213.2414737000072,,,,,,,,,,,,,,,,,,,,,,,,,,,,,,,,,,,,,,,,,,,,,,clips/clip_wurst_26_sub_1.mp4,audios/silence.mp3,visual,1213.235044000001,1213.6412300000084,1213.8422160999908,1213.8422160999908,1213.8414945666775,1215.0936317000014,1226.065465599997,1225.8603230000008,[10.772728300013114],1225.9471451000136,1225.9471758000145,None,1225.947203000018,1225.9472178000142,None,,,,,,,,,,,,,,305,001,2026-03-30_17h30.24.825,exp_sofc,,2025.2.3,59.896809781791525,2026-03-30 17h30.25.486998 +0200,
,73,0,73,,,,,,,,,,,,,,,,,,,,,,2,None,5.950804599997355,None,,,,,,,,,,,73,0,73,0,1226.065465599997,,,,,,,,,,,,,,,,,,,,,,,,,,,,,,,,,,,,,,,,,,,,,,clips/clip_claude_16_sub_1.mp4,audios/clip_claude_16_sub_1.mp3,audiovisual,1226.060432600003,1226.4530486000003,1226.6551386000065,1226.6551386000065,1226.6539878666847,,1237.9604590999952,1237.8510360000073,[9.449705400009407],1237.9552677000174,1243.9135094000085,2,1243.9135627000069,1243.9135825000121,None,2,1237.9604590999952,1237.9604590999952,1237.9604590999952,5.950804599997355,None,,,,,,,,305,001,2026-03-30_17h30.24.825,exp_sofc,,2025.2.3,59.896809781791525,2026-03-30 17h30.25.486998 +0200,
,74,0,74,,,,,,,,,,,,,,,,,,,,,,None,None,,,,,,,,,,,,,74,0,74,0,1244.0128123000031,,,,,,,,,,,,,,,,,,,,,,,,,,,,,,,,,,,,,,,,,,,,,,clips/clip_holo_11_nosub_2.mp4,audios/silence.mp3,visual,1244.0067779000092,1244.4231378000113,1244.6229568000126,1244.6229568000126,1244.6228403666794,1245.8758067000017,1254.4645329999912,1254.2714540000015,[6.910312000021804],1254.3668854999996,1254.3669269999955,None,1254.3669545000012,1254.3669773000001,None,,,,,,,,,,,,,,305,001,2026-03-30_17h30.24.825,exp_sofc,,2025.2.3,59.896809781791525,2026-03-30 17h30.25.486998 +0200,
,75,0,75,,,,,,,,,,,,,,,,,,,,,,None,None,,,,,,,,,,,,,75,0,75,0,1254.4645329999912,,,,,,,,,,,,,,,,,,,,,,,,,,,,,,,,,,,,,,,,,,,,,,clips/clip_wurst_25_sub_1.mp4,audios/clip_wurst_25_sub_1.mp3,audiovisual,1254.458718400012,1254.8805285000126,1255.0816780000168,1255.0816780000168,1255.081600766662,1266.4759770999954,1266.4759770999954,1266.29835930001,[],1266.3819632999948,1266.3820116000134,None,1266.3820960000157,1266.3821268000174,None,,,,,,,,,,,,,,305,001,2026-03-30_17h30.24.825,exp_sofc,,2025.2.3,59.896809781791525,2026-03-30 17h30.25.486998 +0200,
,76,0,76,,,,,,,,,,,,,,,,,,,,,,None,None,,,,,,,,,,,,,76,0,76,0,1266.4759770999954,,,,,,,,,,,,,,,,,,,,,,,,,,,,,,,,,,,,,,,,,,,,,,clips/clip_claude_10_nosub_0.mp4,audios/clip_claude_10_nosub_0.mp3,audiovisual,1266.4701156000083,1266.8827451000107,1267.0835622000159,1267.0835622000159,1267.083495766685,1278.4748338999925,1278.4748338999925,1278.3009137999907,[],1278.374813500006,1278.3748600000108,None,1278.3749359000067,1278.3749668000091,None,,,,,,,,,,,,,,305,001,2026-03-30_17h30.24.825,exp_sofc,,2025.2.3,59.896809781791525,2026-03-30 17h30.25.486998 +0200,
,77,0,77,,,,,,,,,,,,,,,,,,,,,,3,None,5.779107199981809,None,,,,,,,,,,,77,0,77,0,1278.4748338999925,,,,,,,,,,,,,,,,,,,,,,,,,,,,,,,,,,,,,,,,,,,,,,clips/clip_dampf_06_sub_2.mp4,audios/silence.mp3,visual,1278.4688816000125,1278.884405699995,1279.0866941999993,1279.0866941999993,1279.084676666684,1280.3369074999937,1288.2199583000038,1288.1157376000192,[],1288.2143435000035,1294.0000785000157,3,1294.0001252999937,1294.000142200006,None,3,1288.2199583000038,1288.2199583000038,1288.2199583000038,5.779107199981809,None,,,,,,,,305,001,2026-03-30_17h30.24.825,exp_sofc,,2025.2.3,59.896809781791525,2026-03-30 17h30.25.486998 +0200,
,78,0,78,,,,,,,,,,,,,,,,,,,,,,None,None,,,,,,,,,,,,,78,0,78,0,1294.103815200011,,,,,,,,,,,,,,,,,,,,,,,,,,,,,,,,,,,,,,,,,,,,,,clips/clip_weißt_16_sub_0.mp4,audios/silence.mp3,visual,1294.0978443000058,1294.5090308999934,1294.7092797000078,1294.7092797000078,1294.7091252666762,1295.9617548999959,1305.4314138999907,1305.2261167000106,[],1305.3189431999926,1305.3189759000088,None,1305.3190063000075,1305.3190228000167,None,,,,,,,,,,,,,,305,001,2026-03-30_17h30.24.825,exp_sofc,,2025.2.3,59.896809781791525,2026-03-30 17h30.25.486998 +0200,
,79,0,79,,,,,,,,,,,,,,,,,,,,,,None,None,,,,,,,,,,,,,79,0,79,0,1305.4314138999907,,,,,,,,,,,,,,,,,,,,,,,,,,,,,,,,,,,,,,,,,,,,,,clips/clip_wurst_05_sub_0.mp4,audios/clip_wurst_05_sub_0.mp3,audiovisual,1305.4263206000032,1305.8184693999938,1306.0203443999926,1306.0203443999926,1306.0187537666682,,1314.8873542000074,1314.7194881000032,[],1314.8016986000002,1314.8018107000098,None,1314.8018573000154,1314.8018816999975,None,,,,,,,,,,,,,,305,001,2026-03-30_17h30.24.825,exp_sofc,,2025.2.3,59.896809781791525,2026-03-30 17h30.25.486998 +0200,
,80,0,80,,,,,,,,,,,,,,,,,,,,,,3,None,3.2240013999980874,None,,,,,,,,,,,80,0,80,0,1314.8873542000074,,,,,,,,,,,,,,,,,,,,,,,,,,,,,,,,,,,,,,,,,,,,,,clips/clip_lied_05_sub_0.mp4,audios/silence.mp3,visual,1314.8813197000127,1315.316048800014,1315.5168765000126,1315.5168765000126,1315.5166021666703,1316.7683499999985,1325.0069922000112,1324.9145722000103,[],1325.0011262999906,1328.2451845000032,3,1328.2452471000142,1328.2452710999933,None,3,1325.0069922000112,1325.0069922000112,1325.0069922000112,3.2240013999980874,None,,,,,,,,305,001,2026-03-30_17h30.24.825,exp_sofc,,2025.2.3,59.896809781791525,2026-03-30 17h30.25.486998 +0200,
,81,0,81,,,,,,,,,,,,,,,,,,,,,,None,None,,,,,,,,,,,,,81,0,81,0,1328.3404127999966,,,,,,,,,,,,,,,,,,,,,,,,,,,,,,,,,,,,,,,,,,,,,,clips/clip_hund_15_nosub_1.mp4,audios/silence.mp3,visual,1328.3340017000155,1328.7539316000184,1328.9552385999996,1328.9552385999996,1328.9546175666658,1330.206027200009,1339.5969020000193,1339.4042720000143,[5.714034999982687],1339.5017043999978,1339.5017360000056,None,1339.5017642000166,1339.5017820000066,None,,,,,,,,,,,,,,305,001,2026-03-30_17h30.24.825,exp_sofc,,2025.2.3,59.896809781791525,2026-03-30 17h30.25.486998 +0200,
,82,0,82,,,,,,,,,,,,,,,,,,,,,,None,None,,,,,,,,,,,,,82,0,82,0,1339.5969020000193,,,,,,,,,,,,,,,,,,,,,,,,,,,,,,,,,,,,,,,,,,,,,,clips/clip_wurst_27_nosub_1.mp4,audios/clip_wurst_27_nosub_1.mp3,audiovisual,1339.5919878999994,1340.0137856999936,1340.2140348000103,1340.2140348000103,1340.2131786666616,,1350.6257565999986,1350.4174482999952,[7.085529600008158],1350.4997714000056,1350.499849200016,None,1350.499897600006,1350.4999337999907,None,,,,,,,,,,,,,,305,001,2026-03-30_17h30.24.825,exp_sofc,,2025.2.3,59.896809781791525,2026-03-30 17h30.25.486998 +0200,
,83,0,83,,,,,,,,,,,,,,,,,,,,,,None,None,,,,,,,,,,,,,83,0,83,0,1350.6257565999986,,,,,,,,,,,,,,,,,,,,,,,,,,,,,,,,,,,,,,,,,,,,,,clips/clip_lied_20_nosub_2.mp4,audios/clip_lied_20_nosub_2.mp3,audiovisual,1350.6214572000026,1351.0107511999959,1351.2127283000154,1351.2127283000154,1351.211065966669,,1362.0958698000177,1361.913869400014,"[5.234884200006491, 9.595817900000839]",1361.9987439000106,1361.9988187999988,None,1361.998861400003,1361.998886300018,None,,,,,,,,,,,,,,305,001,2026-03-30_17h30.24.825,exp_sofc,,2025.2.3,59.896809781791525,2026-03-30 17h30.25.486998 +0200,
,84,0,84,,,,,,,,,,,,,,,,,,,,,,None,None,,,,,,,,,,,,,84,0,84,0,1362.0958698000177,,,,,,,,,,,,,,,,,,,,,,,,,,,,,,,,,,,,,,,,,,,,,,clips/clip_holo_23_nosub_1.mp4,audios/silence.mp3,visual,1362.0897143000038,1362.5126075000153,1362.712969699991,1362.712969699991,1362.7130571666678,1363.9642718000105,1372.9307214000146,1372.744649100001,[],1372.8316733000102,1372.8317521999998,None,1372.8318016999983,1372.8318189000129,None,,,,,,,,,,,,,,305,001,2026-03-30_17h30.24.825,exp_sofc,,2025.2.3,59.896809781791525,2026-03-30 17h30.25.486998 +0200,
,85,0,85,,,,,,,,,,,,,,,,,,,,,,None,None,,,,,,,,,,,,,85,0,85,0,1372.9307214000146,,,,,,,,,,,,,,,,,,,,,,,,,,,,,,,,,,,,,,,,,,,,,,clips/clip_claude_07_nosub_0.mp4,audios/silence.mp3,visual,1372.9246574999997,1373.3473188999924,1373.5476660999993,1373.5476660999993,1373.547393066667,1374.7995108000177,1383.791870599991,1383.5798949000018,[],1383.6721039999975,1383.6721373000182,None,1383.6721709000121,1383.672187499993,None,,,,,,,,,,,,,,305,001,2026-03-30_17h30.24.825,exp_sofc,,2025.2.3,59.896809781791525,2026-03-30 17h30.25.486998 +0200,
,86,0,86,,,,,,,,,,,,,,,,,,,,,,None,None,,,,,,,,,,,,,86,0,86,0,1383.791870599991,,,,,,,,,,,,,,,,,,,,,,,,,,,,,,,,,,,,,,,,,,,,,,clips/clip_weißt_25_sub_1.mp4,audios/clip_weißt_25_sub_1.mp3,audiovisual,1383.7878909000137,1384.1762796000112,1384.3780912999937,1384.3780912999937,1384.3777734666694,1396.4117476000101,1396.6223792000092,1396.4120102000015,[5.519923199986806],1396.5150635000027,1396.5150959000166,None,1396.5151316999982,1396.515153699991,None,,,,,,,,,,,,,,305,001,2026-03-30_17h30.24.825,exp_sofc,,2025.2.3,59.896809781791525,2026-03-30 17h30.25.486998 +0200,
,87,0,87,,,,,,,,,,,,,,,,,,,,,,None,None,,,,,,,,,,,,,87,0,87,0,1396.6223792000092,,,,,,,,,,,,,,,,,,,,,,,,,,,,,,,,,,,,,,,,,,,,,,clips/clip_herz_17_sub_0.mp4,audios/clip_herz_17_sub_0.mp3,audiovisual,1396.615650599997,1397.0237188000174,1397.2241100000101,1397.2241100000101,1397.223618866676,,1405.641722100001,1405.426095600007,[6.258504299999913],1405.5247581000149,1405.5247960000124,None,1405.5248309000162,1405.5248544999922,None,,,,,,,,,,,,,,305,001,2026-03-30_17h30.24.825,exp_sofc,,2025.2.3,59.896809781791525,2026-03-30 17h30.25.486998 +0200,
,88,0,88,,,,,,,,,,,,,,,,,,,,,,None,None,,,,,,,,,,,,,88,0,88,0,1405.641722100001,,,,,,,,,,,,,,,,,,,,,,,,,,,,,,,,,,,,,,,,,,,,,,clips/clip_wurst_10_nosub_2.mp4,audios/clip_wurst_10_nosub_2.mp3,audiovisual,1405.637895699998,1406.036846300005,1406.2368916000123,1406.2368916000123,1406.235991466678,,1415.2475979000155,1415.040936400008,"[5.1782616000273265, 7.836733200005256]",1415.132122800016,1415.1321587999992,None,1415.132198300009,1415.132217700011,None,,,,,,,,,,,,,,305,001,2026-03-30_17h30.24.825,exp_sofc,,2025.2.3,59.896809781791525,2026-03-30 17h30.25.486998 +0200,
,89,0,89,,,,,,,,,,,,,,,,,,,,,,None,None,,,,,,,,,,,,,89,0,89,0,1415.2475979000155,,,,,,,,,,,,,,,,,,,,,,,,,,,,,,,,,,,,,,,,,,,,,,clips/clip_herz_15_nosub_0.mp4,audios/clip_herz_15_nosub_0.mp3,audiovisual,1415.2433478000166,1415.6315770999936,1415.8322153000045,1415.8322153000045,1415.8315977666682,1428.0357784999942,1428.0357784999942,1427.8507168999931,"[3.893951600010041, 7.951874200021848]",1427.9372926999931,1427.9373281000007,None,1427.9373659999983,1427.9373994999914,None,,,,,,,,,,,,,,305,001,2026-03-30_17h30.24.825,exp_sofc,,2025.2.3,59.896809781791525,2026-03-30 17h30.25.486998 +0200,
,90,0,90,,,,,,,,,,,,,,,,,,,,,,None,None,,,,,,,,,,,,,90,0,90,0,1428.0357784999942,,,,,,,,,,,,,,,,,,,,,,,,,,,,,,,,,,,,,,,,,,,,,,clips/clip_wurst_34_nosub_2.mp4,audios/clip_wurst_34_nosub_2.mp3,audiovisual,1428.0316481000045,1428.437399699993,1428.6379778000119,1428.6379778000119,1428.637914266674,1437.1673291000188,1437.347910100012,1437.1675090999925,"[4.29626719999942, 7.350546900008339]",1437.2491057000007,1437.249152400007,None,1437.2492296000128,1437.2492502999958,None,,,,,,,,,,,,,,305,001,2026-03-30_17h30.24.825,exp_sofc,,2025.2.3,59.896809781791525,2026-03-30 17h30.25.486998 +0200,
,91,0,91,,,,,,,,,,,,,,,,,,,,,,None,None,,,,,,,,,,,,,91,0,91,0,1437.347910100012,,,,,,,,,,,,,,,,,,,,,,,,,,,,,,,,,,,,,,,,,,,,,,clips/clip_wurst_35_sub_0.mp4,audios/clip_wurst_35_sub_0.mp3,audiovisual,1437.3419775000075,1437.751354100008,1437.9528284000116,1437.9528284000116,1437.9522422666817,,1447.428253799997,1447.253953300009,[],1447.3425739000086,1447.3426266000024,None,1447.3426748999918,1447.3427059999958,None,,,,,,,,,,,,,,305,001,2026-03-30_17h30.24.825,exp_sofc,,2025.2.3,59.896809781791525,2026-03-30 17h30.25.486998 +0200,
,92,0,92,,,,,,,,,,,,,,,,,,,,,,None,None,,,,,,,,,,,,,92,0,92,0,1447.428253799997,,,,,,,,,,,,,,,,,,,,,,,,,,,,,,,,,,,,,,,,,,,,,,clips/clip_holo_15_nosub_0.mp4,audios/silence.mp3,visual,1447.4220886999974,1447.850525899994,1448.0508948999923,1448.0508948999923,1448.0507057666584,1449.3029771000147,1457.4545497999934,1457.2488303999999,[6.628572899993742],1457.3418928000028,1457.3419289000158,None,1457.3419681999949,1457.3419846000033,None,,,,,,,,,,,,,,305,001,2026-03-30_17h30.24.825,exp_sofc,,2025.2.3,59.896809781791525,2026-03-30 17h30.25.486998 +0200,
,93,0,93,,,,,,,,,,,,,,,,,,,,,,None,None,,,,,,,,,,,,,93,0,93,0,1457.4545497999934,,,,,,,,,,,,,,,,,,,,,,,,,,,,,,,,,,,,,,,,,,,,,,clips/clip_holo_12_nosub_1.mp4,audios/clip_holo_12_nosub_1.mp3,audiovisual,1457.4495176000055,1457.8599130999937,1458.0752182000142,1458.0417285000149,1458.04125256668,1468.0736215999932,1468.2743528000137,1468.0737918000086,[8.4389261000033],1468.1862094000098,1468.1862594000122,None,1468.1863473000121,1468.1863841000013,None,,,,,,,,,,,,,,305,001,2026-03-30_17h30.24.825,exp_sofc,,2025.2.3,59.896809781791525,2026-03-30 17h30.25.486998 +0200,
,94,0,94,,,,,,,,,,,,,,,,,,,,,,None,None,,,,,,,,,,,,,94,0,94,0,1468.2743528000137,,,,,,,,,,,,,,,,,,,,,,,,,,,,,,,,,,,,,,,,,,,,,,clips/clip_holo_21_nosub_1.mp4,audios/silence.mp3,visual,1468.2682541999966,1468.7001256000076,1468.9005441000045,1468.9005441000045,1468.9000270666768,1470.1519671000133,1479.2876431000186,1479.1004777000053,[4.155297699995572],1479.2001684000134,1479.2002148000174,None,1479.2002644000167,1479.2002885999973,None,,,,,,,,,,,,,,305,001,2026-03-30_17h30.24.825,exp_sofc,,2025.2.3,59.896809781791525,2026-03-30 17h30.25.486998 +0200,
,95,0,95,,,,,,,,,,,,,,,,,,,,,,None,None,,,,,,,,,,,,,95,0,95,0,1479.2876431000186,,,,,,,,,,,,,,,,,,,,,,,,,,,,,,,,,,,,,,,,,,,,,,clips/clip_hund_10_nosub_0.mp4,audios/silence.mp3,visual,1479.2816087999963,1479.7041069999977,1479.9046318000183,1479.9046318000183,1479.9046867666805,1481.156229300017,1489.6307262000046,1489.4360845000192,[8.418931299995165],1489.5351647000061,1489.5352175000007,None,1489.535268800013,1489.535288300016,None,,,,,,,,,,,,,,305,001,2026-03-30_17h30.24.825,exp_sofc,,2025.2.3,59.896809781791525,2026-03-30 17h30.25.486998 +0200,
,96,0,96,,,,,,,,,,,,,,,,,,,,,,None,None,,,,,,,,,,,,,96,0,96,0,1489.6307262000046,,,,,,,,,,,,,,,,,,,,,,,,,,,,,,,,,,,,,,,,,,,,,,clips/clip_hund_12_nosub_1.mp4,audios/silence.mp3,visual,1489.6248655999952,1490.0453685999964,1490.2468984000152,1490.2468984000152,1490.2461508666786,1491.4972959000152,1501.6660306999984,1501.4633211000182,[10.067189399997005],1501.5576941000181,1501.5577438000182,None,1501.5577852000133,1501.557801899995,None,,,,,,,,,,,,,,305,001,2026-03-30_17h30.24.825,exp_sofc,,2025.2.3,59.896809781791525,2026-03-30 17h30.25.486998 +0200,
,97,0,97,,,,,,,,,,,,,,,,,,,,,,None,None,,,,,,,,,,,,,97,0,97,0,1501.6660306999984,,,,,,,,,,,,,,,,,,,,,,,,,,,,,,,,,,,,,,,,,,,,,,clips/clip_hund_27_sub_1.mp4,audios/clip_hund_27_sub_1.mp3,audiovisual,1501.661203800002,1502.0725649000087,1502.2727427000063,1502.2727427000063,1502.272688466681,1512.5056010000117,1512.708906600019,1512.505734700011,[5.107364700001199],1512.5940354000195,1512.594072500011,None,1512.5941101000062,1512.594127199991,None,,,,,,,,,,,,,,305,001,2026-03-30_17h30.24.825,exp_sofc,,2025.2.3,59.896809781791525,2026-03-30 17h30.25.486998 +0200,
,98,0,98,,,,,,,,,,,,,,,,,,,,,,2,None,9.035403200017754,None,,,,,,,,,,,98,0,98,0,1512.708906600019,,,,,,,,,,,,,,,,,,,,,,,,,,,,,,,,,,,,,,,,,,,,,,clips/clip_claude_25_sub_0.mp4,audios/clip_claude_25_sub_0.mp3,audiovisual,1512.7046574999986,1513.0980704000103,1513.2981539000175,1513.2981539000175,1513.297767266664,1523.6205873000144,1523.6205873000144,1523.5022467999952,[],1523.6135471000161,1532.6615695999935,2,1532.6616235999973,1532.6616574999935,None,2,1523.6205873000144,1523.6205873000144,1523.6205873000144,9.035403200017754,None,,,,,,,,305,001,2026-03-30_17h30.24.825,exp_sofc,,2025.2.3,59.896809781791525,2026-03-30 17h30.25.486998 +0200,
,99,0,99,,,,,,,,,,,,,,,,,,,,,,None,None,,,,,,,,,,,,,99,0,99,0,1532.7590478000056,,,,,,,,,,,,,,,,,,,,,,,,,,,,,,,,,,,,,,,,,,,,,,clips/clip_wurst_31_sub_1.mp4,audios/clip_wurst_31_sub_1.mp3,audiovisual,1532.7537251000176,1533.1713627999998,1533.3720620000095,1533.3720620000095,1533.3716495666633,1543.4044469000073,1544.5763453000109,1544.404941100016,[],1544.490494400001,1544.4905298000085,None,1544.4905587999965,1544.4905741999974,None,,,,,,,,,,,,,,305,001,2026-03-30_17h30.24.825,exp_sofc,,2025.2.3,59.896809781791525,2026-03-30 17h30.25.486998 +0200,
,100,0,100,,,,,,,,,,,,,,,,,,,,,,3,None,5.639813300018432,None,,,,,,,,,,,100,0,100,0,1544.5763453000109,,,,,,,,,,,,,,,,,,,,,,,,,,,,,,,,,,,,,,,,,,,,,,clips/clip_claude_15_sub_0.mp4,audios/silence.mp3,visual,1544.5698851000052,1545.006327900017,1545.2060917000053,1545.2060917000053,1545.2061714666818,1546.4581707000034,1557.3300125999958,1557.2259420000191,[],1557.3236241000122,1562.9759397000016,3,1562.976000900002,1562.9760305999953,None,3,1557.3300125999958,1557.3300125999958,1557.3300125999958,5.639813300018432,None,,,,,,,,305,001,2026-03-30_17h30.24.825,exp_sofc,,2025.2.3,59.896809781791525,2026-03-30 17h30.25.486998 +0200,
,101,0,101,,,,,,,,,,,,,,,,,,,,,,None,None,,,,,,,,,,,,,101,0,101,0,1563.1002857999993,,,,,,,,,,,,,,,,,,,,,,,,,,,,,,,,,,,,,,,,,,,,,,clips/clip_claude_06_sub_1.mp4,audios/clip_claude_06_sub_1.mp3,audiovisual,1563.0956231000018,1563.4767857000115,1563.6769854000013,1563.6769854000013,1563.6768686666658,,1576.4490202000015,1576.2384366000188,[4.396881799999392],1576.3237797000038,1576.3238114000123,None,1576.3238371000043,1576.3238536000135,None,,,,,,,,,,,,,,305,001,2026-03-30_17h30.24.825,exp_sofc,,2025.2.3,59.896809781791525,2026-03-30 17h30.25.486998 +0200,
,102,0,102,,,,,,,,,,,,,,,,,,,,,,None,None,,,,,,,,,,,,,102,0,102,0,1576.4490202000015,,,,,,,,,,,,,,,,,,,,,,,,,,,,,,,,,,,,,,,,,,,,,,clips/clip_weißt_06_sub_0.mp4,audios/clip_weißt_06_sub_0.mp3,audiovisual,1576.4433172999998,1576.8301914000185,1577.0307077000034,1577.0307077000034,1577.0304047666762,1587.3456774000078,1587.5401155000145,1587.345851399994,[6.098181999986991],1587.4439836000092,1587.4440194999916,None,1587.4440534000169,1587.44407160001,None,,,,,,,,,,,,,,305,001,2026-03-30_17h30.24.825,exp_sofc,,2025.2.3,59.896809781791525,2026-03-30 17h30.25.486998 +0200,
,103,0,103,,,,,,,,,,,,,,,,,,,,,,None,None,,,,,,,,,,,,,103,0,103,0,1587.5401155000145,,,,,,,,,,,,,,,,,,,,,,,,,,,,,,,,,,,,,,,,,,,,,,clips/clip_hund_23_sub_1.mp4,audios/silence.mp3,visual,1587.5336991999939,1587.9567338000052,1588.157969699998,1588.157969699998,1588.1562153666785,1589.4095377000049,1599.275143100007,1599.0731760000053,[],1599.1653468000004,1599.1653893000039,None,1599.165426499996,1599.165443100006,None,,,,,,,,,,,,,,305,001,2026-03-30_17h30.24.825,exp_sofc,,2025.2.3,59.896809781791525,2026-03-30 17h30.25.486998 +0200,
,104,0,104,,,,,,,,,,,,,,,,,,,,,,None,None,,,,,,,,,,,,,104,0,104,0,1599.275143100007,,,,,,,,,,,,,,,,,,,,,,,,,,,,,,,,,,,,,,,,,,,,,,clips/clip_dampf_02_sub_1.mp4,audios/clip_dampf_02_sub_1.mp3,audiovisual,1599.2694581999967,1599.6663550999947,1599.866225100006,1599.866225100006,1599.8660131666732,1609.3890893000062,1609.3890893000062,1609.1973274000047,[],1609.287087100005,1609.2871607000125,None,1609.2872096000065,1609.2872342000192,None,,,,,,,,,,,,,,305,001,2026-03-30_17h30.24.825,exp_sofc,,2025.2.3,59.896809781791525,2026-03-30 17h30.25.486998 +0200,
,105,0,105,,,,,,,,,,,,,,,,,,,,,,None,None,,,,,,,,,,,,,105,0,105,0,1609.3890893000062,,,,,,,,,,,,,,,,,,,,,,,,,,,,,,,,,,,,,,,,,,,,,,clips/clip_weißt_27_sub_1.mp4,audios/clip_weißt_27_sub_1.mp3,audiovisual,1609.3836110999982,1609.7896307000192,1609.990437600005,1609.990437600005,1609.9897808666612,1620.0891504000174,1620.2860879999935,1620.0893387999968,[],1620.1784146999998,1620.1784620000108,None,1620.178505799995,1620.178528599994,None,,,,,,,,,,,,,,305,001,2026-03-30_17h30.24.825,exp_sofc,,2025.2.3,59.896809781791525,2026-03-30 17h30.25.486998 +0200,
,106,0,106,,,,,,,,,,,,,,,,,,,,,,None,None,,,,,,,,,,,,,106,0,106,0,1620.2860879999935,,,,,,,,,,,,,,,,,,,,,,,,,,,,,,,,,,,,,,,,,,,,,,clips/clip_holo_27_nosub_1.mp4,audios/clip_holo_27_nosub_1.mp3,audiovisual,1620.2818397000083,1620.6817310000188,1620.8818130000145,1620.8818130000145,1620.8817245666617,1630.8806727000047,1631.0885577000154,1630.880865700019,[],1630.975663899997,1630.9756993000046,None,1630.9757332000008,1630.9757514999947,None,,,,,,,,,,,,,,305,001,2026-03-30_17h30.24.825,exp_sofc,,2025.2.3,59.896809781791525,2026-03-30 17h30.25.486998 +0200,
,107,0,107,,,,,,,,,,,,,,,,,,,,,,None,None,,,,,,,,,,,,,107,0,107,0,1631.0885577000154,,,,,,,,,,,,,,,,,,,,,,,,,,,,,,,,,,,,,,,,,,,,,,clips/clip_wurst_23_sub_2.mp4,audios/clip_wurst_23_sub_2.mp3,audiovisual,1631.0837952000147,1631.489948900009,1631.6904611999926,1631.6904611999926,1631.6904822666586,1642.2244652000081,1642.4025447000167,1642.224706900015,"[3.807071299990639, 9.601894099992933]",1642.3113161000074,1642.311367599992,None,1642.311449300003,1642.3114884000097,None,,,,,,,,,,,,,,305,001,2026-03-30_17h30.24.825,exp_sofc,,2025.2.3,59.896809781791525,2026-03-30 17h30.25.486998 +0200,
,108,0,108,,,,,,,,,,,,,,,,,,,,,,None,None,,,,,,,,,,,,,108,0,108,0,1642.4025447000167,,,,,,,,,,,,,,,,,,,,,,,,,,,,,,,,,,,,,,,,,,,,,,clips/clip_weißt_28_nosub_1.mp4,audios/silence.mp3,visual,1642.3964558000152,1642.8249638999987,1643.025036200008,1643.025036200008,1643.0252063666742,1644.2765749999962,1653.3047616000113,1653.1077158999979,"[2.194588400016073, 6.951845800009323]",1653.199770600011,1653.1998172000167,None,1653.1998578000057,1653.1998745000164,None,,,,,,,,,,,,,,305,001,2026-03-30_17h30.24.825,exp_sofc,,2025.2.3,59.896809781791525,2026-03-30 17h30.25.486998 +0200,
,109,0,109,,,,,,,,,,,,,,,,,,,,,,None,None,,,,,,,,,,,,,109,0,109,0,1653.3047616000113,,,,,,,,,,,,,,,,,,,,,,,,,,,,,,,,,,,,,,,,,,,,,,clips/clip_herz_01_sub_1.mp4,audios/clip_herz_01_sub_1.mp3,audiovisual,1653.3006228000158,1653.699492899992,1653.9005706000025,1653.9005706000025,1653.8997304666593,,1664.6621274999925,1664.4845967,"[1.7061672999989241, 6.413958899996942]",1664.5759342999954,1664.5759694000008,None,1664.5760063999915,1664.576027800009,None,,,,,,,,,,,,,,305,001,2026-03-30_17h30.24.825,exp_sofc,,2025.2.3,59.896809781791525,2026-03-30 17h30.25.486998 +0200,
,110,0,110,,,,,,,,,,,,,,,,,,,,,,None,None,,,,,,,,,,,,,110,0,110,0,1664.6621274999925,,,,,,,,,,,,,,,,,,,,,,,,,,,,,,,,,,,,,,,,,,,,,,clips/clip_weißt_29_nosub_1.mp4,audios/silence.mp3,visual,1664.655812300014,1665.084310700011,1665.2848354000016,1665.2848354000016,1665.2840765666663,1666.5363860999933,1677.0862859000044,1676.8869863,[6.86914089997299],1676.985893200006,1676.9859560000186,None,1676.9860082000087,1676.9860251999926,None,,,,,,,,,,,,,,305,001,2026-03-30_17h30.24.825,exp_sofc,,2025.2.3,59.896809781791525,2026-03-30 17h30.25.486998 +0200,
,111,0,111,,,,,,,,,,,,,,,,,,,,,,None,None,,,,,,,,,,,,,111,0,111,0,1677.0862859000044,,,,,,,,,,,,,,,,,,,,,,,,,,,,,,,,,,,,,,,,,,,,,,clips/clip_wurst_17_nosub_0.mp4,audios/clip_wurst_17_nosub_0.mp3,audiovisual,1677.080174600007,1677.495606600016,1677.696359900001,1677.696359900001,1677.6958264666648,1685.7245918000117,1685.9138774000166,1685.724785600003,[],1685.8200628000195,1685.8201176000002,None,1685.820157900016,1685.8201751000015,None,,,,,,,,,,,,,,305,001,2026-03-30_17h30.24.825,exp_sofc,,2025.2.3,59.896809781791525,2026-03-30 17h30.25.486998 +0200,
,112,0,112,,,,,,,,,,,,,,,,,,,,,,1,None,4.673754499992356,None,,,,,,,,,,,112,0,112,0,1685.9138774000166,,,,,,,,,,,,,,,,,,,,,,,,,,,,,,,,,,,,,,,,,,,,,,clips/clip_wurst_06_nosub_2.mp4,audios/silence.mp3,visual,1685.9078940000036,1686.3303047000081,1686.531727099995,1686.531727099995,1686.531361066682,1687.7826057999919,1697.734123400005,1697.6314991000108,"[2.7214328999980353, 8.552450799994403]",1697.728730200004,1702.413692800008,1,1702.4137521999946,1702.413776900008,None,1,1697.734123400005,1697.734123400005,1697.734123400005,4.673754499992356,None,,,,,,,,305,001,2026-03-30_17h30.24.825,exp_sofc,,2025.2.3,59.896809781791525,2026-03-30 17h30.25.486998 +0200,
,113,0,113,,,,,,,,,,,,,,,,,,,,,,None,None,,,,,,,,,,,,,113,0,113,0,1702.5032695000118,,,,,,,,,,,,,,,,,,,,,,,,,,,,,,,,,,,,,,,,,,,,,,clips/clip_wurst_28_sub_1.mp4,audios/silence.mp3,visual,1702.498179599992,1702.921475900017,1703.1222047000192,1703.1222047000192,1703.1217547666786,1704.373132000008,1713.6660468000046,1713.4549382000114,[],1713.546813699999,1713.5468483000004,None,1713.546876700013,1713.546892000013,None,,,,,,,,,,,,,,305,001,2026-03-30_17h30.24.825,exp_sofc,,2025.2.3,59.896809781791525,2026-03-30 17h30.25.486998 +0200,
,114,0,114,,,,,,,,,,,,,,,,,,,,,,None,None,,,,,,,,,,,,,114,0,114,0,1713.6660468000046,,,,,,,,,,,,,,,,,,,,,,,,,,,,,,,,,,,,,,,,,,,,,,clips/clip_hund_34_nosub_1.mp4,audios/silence.mp3,visual,1713.6599400000123,1714.0490367000166,1714.2500848000054,1714.2500848000054,1714.2495482666748,1715.5021393999923,1724.888878400001,1724.6824385999935,[],1724.773546500015,1724.7735906000016,None,1724.7736236999917,1724.7736404000025,None,,,,,,,,,,,,,,305,001,2026-03-30_17h30.24.825,exp_sofc,,2025.2.3,59.896809781791525,2026-03-30 17h30.25.486998 +0200,
,115,0,115,,,,,,,,,,,,,,,,,,,,,,None,None,,,,,,,,,,,,,115,0,115,0,1724.888878400001,,,,,,,,,,,,,,,,,,,,,,,,,,,,,,,,,,,,,,,,,,,,,,clips/clip_claude_14_sub_0.mp4,audios/clip_claude_14_sub_0.mp3,audiovisual,1724.8846256000106,1725.2745943999907,1725.4757283999934,1725.4757283999934,1725.475454966658,,1736.7496530000062,1736.5784187999961,"[3.556466099980753, 8.96689269997296]",1736.6584182000079,1736.6584872000094,None,1736.6585439000046,1736.658572300017,None,,,,,,,,,,,,,,305,001,2026-03-30_17h30.24.825,exp_sofc,,2025.2.3,59.896809781791525,2026-03-30 17h30.25.486998 +0200,
,116,0,116,,,,,,,,,,,,,,,,,,,,,,None,None,,,,,,,,,,,,,116,0,116,0,1736.7496530000062,,,,,,,,,,,,,,,,,,,,,,,,,,,,,,,,,,,,,,,,,,,,,,clips/clip_herz_03_sub_2.mp4,audios/silence.mp3,visual,1736.74353420001,1737.1609347000194,1737.3605374000035,1737.3605374000035,1737.3603523666718,1738.6136187000084,1749.9238097000052,1749.7476016000146,"[5.2583891999966, 11.825768400012748]",1749.831498000014,1749.8315453999967,None,1749.8315903000184,1749.831616200012,None,,,,,,,,,,,,,,305,001,2026-03-30_17h30.24.825,exp_sofc,,2025.2.3,59.896809781791525,2026-03-30 17h30.25.486998 +0200,
,117,0,117,,,,,,,,,,,,,,,,,,,,,,None,None,,,,,,,,,,,,,117,0,117,0,1749.9238097000052,,,,,,,,,,,,,,,,,,,,,,,,,,,,,,,,,,,,,,,,,,,,,,clips/clip_lied_12_nosub_0.mp4,audios/silence.mp3,visual,1749.9176968999964,1750.330477200012,1750.5308356000169,1750.5308356000169,1750.530755866672,1751.7827780999942,1759.7675125999958,1759.5622222000093,[],1759.668041500001,1759.6680827999953,None,1759.6681188000075,1759.6681353000167,None,,,,,,,,,,,,,,305,001,2026-03-30_17h30.24.825,exp_sofc,,2025.2.3,59.896809781791525,2026-03-30 17h30.25.486998 +0200,
,118,0,118,,,,,,,,,,,,,,,,,,,,,,1,None,5.0219091000035405,None,,,,,,,,,,,118,0,118,0,1759.7675125999958,,,,,,,,,,,,,,,,,,,,,,,,,,,,,,,,,,,,,,,,,,,,,,clips/clip_wurst_04_nosub_2.mp4,audios/clip_wurst_04_nosub_2.mp3,audiovisual,1759.7621597000107,1760.1709050000063,1760.3717025000078,1760.3717025000078,1760.37103376666,1772.0229988000065,1772.1276092999906,1772.023192099994,"[5.572586800000863, 7.2558234999887645]",1772.1230218000128,1777.155825599999,1,1777.1558793000004,1777.1558971999912,None,1,1772.1276092999906,1772.1276092999906,1772.1276092999906,5.0219091000035405,None,,,,,,,,305,001,2026-03-30_17h30.24.825,exp_sofc,,2025.2.3,59.896809781791525,2026-03-30 17h30.25.486998 +0200,
,119,0,119,,,,,,,,,,,,,,,,,,,,,,1,space,3.855317700013984,None,90.27366229999461,None,,,,,,,,,119,0,119,0,1777.27926380001,,,,,,,,,,,,,,,,,,,,,,,,,,,,,,,,,,,,,,,,,,,,,,clips/clip_weißt_13_sub_0.mp4,audios/clip_weißt_13_sub_0.mp3,audiovisual,1777.2735966000182,1777.6563265000004,1777.856875700003,1777.856875700003,1777.8566293666702,1788.7880274000054,1788.7880274000054,1788.6736068000027,[],1788.783263099991,1792.6450382000185,1,1792.6450920999923,1882.9359171999968,space,4,1788.7880274000054,1788.7880274000054,1788.7880274000054,3.855317700013984,None,1792.6613735000137,1792.6613735000137,1792.6613735000137,90.27366229999461,None,,,305,001,2026-03-30_17h30.24.825,exp_sofc,,2025.2.3,59.896809781791525,2026-03-30 17h30.25.486998 +0200,
,120,0,120,,,,,,,,,,,,,,,,,,,,,,None,None,,,,,,,,,,,,,120,0,120,0,1883.0405750999926,,,,,,,,,,,,,,,,,,,,,,,,,,,,,,,,,,,,,,,,,,,,,,clips/clip_holo_05_nosub_2.mp4,audios/silence.mp3,visual,1883.0351674999984,1883.4445869000047,1883.6452157000022,1883.6452157000022,1883.6450948666645,1884.896631200012,1892.9903877000033,1892.776575099997,[7.314169899997069],1892.8720595000195,1892.872091199999,None,1892.8721184000024,1892.8721338000032,None,,,,,,,,,,,,,,305,001,2026-03-30_17h30.24.825,exp_sofc,,2025.2.3,59.896809781791525,2026-03-30 17h30.25.486998 +0200,
,121,0,121,,,,,,,,,,,,,,,,,,,,,,None,None,,,,,,,,,,,,,121,0,121,0,1892.9903877000033,,,,,,,,,,,,,,,,,,,,,,,,,,,,,,,,,,,,,,,,,,,,,,clips/clip_claude_18_nosub_0.mp4,audios/clip_claude_18_nosub_0.mp3,audiovisual,1892.985525600001,1893.3736194999947,1893.574993200018,1893.574993200018,1893.5746766666746,1902.6054384000017,1902.8048436999961,1902.6056712999998,[],1902.6897114000167,1902.6897546999971,None,1902.6898006999982,1902.6898254000116,None,,,,,,,,,,,,,,305,001,2026-03-30_17h30.24.825,exp_sofc,,2025.2.3,59.896809781791525,2026-03-30 17h30.25.486998 +0200,
,122,0,122,,,,,,,,,,,,,,,,,,,,,,None,None,,,,,,,,,,,,,122,0,122,0,1902.8048436999961,,,,,,,,,,,,,,,,,,,,,,,,,,,,,,,,,,,,,,,,,,,,,,clips/clip_wurst_36_nosub_0.mp4,audios/clip_wurst_36_nosub_0.mp3,audiovisual,1902.7991780000157,1903.197588400013,1903.3986071000108,1903.3986071000108,1903.3981743666848,1913.4545083999983,1913.4545083999983,1913.263519500004,[],1913.3434539000154,1913.3434941000014,None,1913.3435293000075,1913.3435471999983,None,,,,,,,,,,,,,,305,001,2026-03-30_17h30.24.825,exp_sofc,,2025.2.3,59.896809781791525,2026-03-30 17h30.25.486998 +0200,
,123,0,123,,,,,,,,,,,,,,,,,,,,,,None,None,,,,,,,,,,,,,123,0,123,0,1913.4545083999983,,,,,,,,,,,,,,,,,,,,,,,,,,,,,,,,,,,,,,,,,,,,,,clips/clip_wurst_03_nosub_1.mp4,audios/clip_wurst_03_nosub_1.mp3,audiovisual,1913.4495823000034,1913.854599800019,1914.0552557000192,1914.0552557000192,1914.0549185666644,1926.1714838999906,1926.1714838999906,1925.9821204000036,[4.595411000016611],1926.0692192999995,1926.0692611999984,None,1926.0693142999953,1926.0693490999984,None,,,,,,,,,,,,,,305,001,2026-03-30_17h30.24.825,exp_sofc,,2025.2.3,59.896809781791525,2026-03-30 17h30.25.486998 +0200,
,124,0,124,,,,,,,,,,,,,,,,,,,,,,1,None,5.721349400002509,None,,,,,,,,,,,124,0,124,0,1926.1714838999906,,,,,,,,,,,,,,,,,,,,,,,,,,,,,,,,,,,,,,,,,,,,,,clips/clip_lied_19_sub_1.mp4,audios/clip_lied_19_sub_1.mp3,audiovisual,1926.1675816999923,1926.5846910999971,1926.800449500006,1926.7842008000007,1926.7836341666737,1937.597524700017,1937.597524700017,1937.4900025000097,[5.718163800018374],1937.5916618999909,1943.3235488999926,1,1943.323613799992,1943.3236446999945,None,1,1937.597524700017,1937.597524700017,1937.597524700017,5.721349400002509,None,,,,,,,,305,001,2026-03-30_17h30.24.825,exp_sofc,,2025.2.3,59.896809781791525,2026-03-30 17h30.25.486998 +0200,
,125,0,125,,,,,,,,,,,,,,,,,,,,,,None,None,,,,,,,,,,,,,125,0,125,0,1943.4328251999978,,,,,,,,,,,,,,,,,,,,,,,,,,,,,,,,,,,,,,,,,,,,,,clips/clip_wurst_11_nosub_0.mp4,audios/silence.mp3,visual,1943.4270603000186,1943.833139800001,1944.0341432999994,1944.0341432999994,1944.0340146666606,1945.2853830000095,1956.2339602000138,1956.052331600018,[],1956.1442081000132,1956.1442416000064,None,1956.1442707999959,1956.144289399992,None,,,,,,,,,,,,,,305,001,2026-03-30_17h30.24.825,exp_sofc,,2025.2.3,59.896809781791525,2026-03-30 17h30.25.486998 +0200,
,126,0,126,,,,,,,,,,,,,,,,,,,,,,None,None,,,,,,,,,,,,,126,0,126,0,1956.2339602000138,,,,,,,,,,,,,,,,,,,,,,,,,,,,,,,,,,,,,,,,,,,,,,clips/clip_hund_36_sub_2.mp4,audios/silence.mp3,visual,1956.2279281000083,1956.6535363000003,1956.853508500004,1956.853508500004,1956.8536117666847,1958.1058987000142,1966.2153668999963,1966.0188624000002,"[4.730380900000455, 6.202310500026215]",1966.1015496000182,1966.1015947000124,None,1966.1016338999907,1966.1016519000113,None,,,,,,,,,,,,,,305,001,2026-03-30_17h30.24.825,exp_sofc,,2025.2.3,59.896809781791525,2026-03-30 17h30.25.486998 +0200,
,127,0,127,,,,,,,,,,,,,,,,,,,,,,None,None,,,,,,,,,,,,,127,0,127,0,1966.2153668999963,,,,,,,,,,,,,,,,,,,,,,,,,,,,,,,,,,,,,,,,,,,,,,clips/clip_herz_16_nosub_0.mp4,audios/clip_herz_16_nosub_0.mp3,audiovisual,1966.2100423999946,1966.6102449000173,1966.810835900018,1966.810835900018,1966.8111456666704,1975.8415535000095,1976.001728000003,1975.8417304000177,[],1975.9232241999998,1975.9232682000147,None,1975.9233090000052,1975.923332300008,None,,,,,,,,,,,,,,305,001,2026-03-30_17h30.24.825,exp_sofc,,2025.2.3,59.896809781791525,2026-03-30 17h30.25.486998 +0200,
,128,0,128,,,,,,,,,,,,,,,,,,,,,,None,None,,,,,,,,,,,,,128,0,128,0,1976.001728000003,,,,,,,,,,,,,,,,,,,,,,,,,,,,,,,,,,,,,,,,,,,,,,clips/clip_herz_08_sub_0.mp4,audios/silence.mp3,visual,1975.9965370999998,1976.4365143000032,1976.6362613000092,1976.6362613000092,1976.6357599666846,1977.8879022000183,1988.8641094000195,1988.6550265999977,"[5.408039800007828, 9.681803700019373]",1988.7577790000068,1988.7578177000105,None,1988.757866400003,1988.7579019000113,None,,,,,,,,,,,,,,305,001,2026-03-30_17h30.24.825,exp_sofc,,2025.2.3,59.896809781791525,2026-03-30 17h30.25.486998 +0200,
,129,0,129,,,,,,,,,,,,,,,,,,,,,,None,None,,,,,,,,,,,,,129,0,129,0,1988.8641094000195,,,,,,,,,,,,,,,,,,,,,,,,,,,,,,,,,,,,,,,,,,,,,,clips/clip_holo_10_nosub_1.mp4,audios/silence.mp3,visual,1988.858019700012,1989.264555700007,1989.4647761000087,1989.4647761000087,1989.464605566671,1990.717109099991,1999.6634422999923,1999.4300451000163,[5.99084959999891],1999.5197502000083,1999.5198123000155,None,1999.5198661000177,1999.5198978999979,None,,,,,,,,,,,,,,305,001,2026-03-30_17h30.24.825,exp_sofc,,2025.2.3,59.896809781791525,2026-03-30 17h30.25.486998 +0200,
,130,0,130,,,,,,,,,,,,,,,,,,,,,,None,None,,,,,,,,,,,,,130,0,130,0,1999.6634422999923,,,,,,,,,,,,,,,,,,,,,,,,,,,,,,,,,,,,,,,,,,,,,,clips/clip_herz_05_sub_0.mp4,audios/clip_herz_05_sub_0.mp3,audiovisual,1999.6576051000156,2000.0306625000085,2000.2313272000174,2000.2313272000174,2000.2312384666623,,2010.7636879000056,2010.5318403000128,[5.953091500006849],2010.6534201000177,2010.6534520999994,None,2010.653480900015,2010.6535003000172,None,,,,,,,,,,,,,,305,001,2026-03-30_17h30.24.825,exp_sofc,,2025.2.3,59.896809781791525,2026-03-30 17h30.25.486998 +0200,
,131,0,131,,,,,,,,,,,,,,,,,,,,,,None,None,,,,,,,,,,,,,131,0,131,0,2010.7636879000056,,,,,,,,,,,,,,,,,,,,,,,,,,,,,,,,,,,,,,,,,,,,,,clips/clip_holo_07_nosub_0.mp4,audios/clip_holo_07_nosub_0.mp3,audiovisual,2010.7585666000086,2011.1656152000069,2011.3656156999932,2011.3656156999932,2011.3649895666788,,2020.9621994000045,2020.7647997000022,[],2020.8546497999923,2020.8546870000137,None,2020.8547441000119,2020.8547820000094,None,,,,,,,,,,,,,,305,001,2026-03-30_17h30.24.825,exp_sofc,,2025.2.3,59.896809781791525,2026-03-30 17h30.25.486998 +0200,
,132,0,132,,,,,,,,,,,,,,,,,,,,,,None,None,,,,,,,,,,,,,132,0,132,0,2020.9621994000045,,,,,,,,,,,,,,,,,,,,,,,,,,,,,,,,,,,,,,,,,,,,,,clips/clip_hund_13_nosub_1.mp4,audios/clip_hund_13_nosub_1.mp3,audiovisual,2020.9564279000042,2021.355315199995,2021.5560732000158,2021.5560732000158,2021.555925966681,2033.324170900014,2033.500911900017,2033.3243025999982,[6.0819138000078965],2033.4088842000056,2033.40892300001,None,2033.408958200016,2033.4089754000015,None,,,,,,,,,,,,,,305,001,2026-03-30_17h30.24.825,exp_sofc,,2025.2.3,59.896809781791525,2026-03-30 17h30.25.486998 +0200,
,133,0,133,,,,,,,,,,,,,,,,,,,,,,3,None,4.348719699977664,None,,,,,,,,,,,133,0,133,0,2033.500911900017,,,,,,,,,,,,,,,,,,,,,,,,,,,,,,,,,,,,,,,,,,,,,,clips/clip_wurst_33_nosub_0.mp4,audios/silence.mp3,visual,2033.494863,2033.9087903000182,2034.1099205999926,2034.1099205999926,2034.1094091666785,2035.3605469000177,2043.9348415000131,2043.8415548000194,[],2043.9295486999908,2048.2896354999975,3,2048.2896932000003,2048.28971740001,None,3,2043.9348415000131,2043.9348415000131,2043.9348415000131,4.348719699977664,None,,,,,,,,305,001,2026-03-30_17h30.24.825,exp_sofc,,2025.2.3,59.896809781791525,2026-03-30 17h30.25.486998 +0200,
,134,0,134,,,,,,,,,,,,,,,,,,,,,,None,None,,,,,,,,,,,,,134,0,134,0,2048.4104755000153,,,,,,,,,,,,,,,,,,,,,,,,,,,,,,,,,,,,,,,,,,,,,,clips/clip_wurst_14_sub_1.mp4,audios/clip_wurst_14_sub_1.mp3,audiovisual,2048.4057595000195,2048.791780200001,2049.007549700007,2048.9905505999923,2048.990142066676,2059.0229457000096,2059.226175699994,2059.023141999991,[8.260727399989264],2059.121380299999,2059.1214141999953,None,2059.1214437000162,2059.1214593000186,None,,,,,,,,,,,,,,305,001,2026-03-30_17h30.24.825,exp_sofc,,2025.2.3,59.896809781791525,2026-03-30 17h30.25.486998 +0200,
,135,0,135,,,,,,,,,,,,,,,,,,,,,,None,None,,,,,,,,,,,,,135,0,135,0,2059.226175699994,,,,,,,,,,,,,,,,,,,,,,,,,,,,,,,,,,,,,,,,,,,,,,clips/clip_wurst_21_sub_0.mp4,audios/silence.mp3,visual,2059.2199622000044,2059.6321309000195,2059.8325243,2059.8325243,2059.83233566667,2061.0842714000028,2070.5282506000076,2070.365754700004,[],2070.4339562999958,2070.4340227000066,None,2070.4340711999976,2070.4340883000114,None,,,,,,,,,,,,,,305,001,2026-03-30_17h30.24.825,exp_sofc,,2025.2.3,59.896809781791525,2026-03-30 17h30.25.486998 +0200,
,136,0,136,,,,,,,,,,,,,,,,,,,,,,3,None,5.150745999999344,None,,,,,,,,,,,136,0,136,0,2070.5282506000076,,,,,,,,,,,,,,,,,,,,,,,,,,,,,,,,,,,,,,,,,,,,,,clips/clip_holo_03_nosub_1.mp4,audios/silence.mp3,visual,2070.522258800018,2070.9448779000086,2071.145722699992,2071.145722699992,2071.145061566673,2072.3966971999907,2080.7906981999986,2080.676709399995,[7.383084800007055],2080.785227400018,2085.9496096000075,3,2085.94967490001,2085.949703399994,None,3,2080.7906981999986,2080.7906981999986,2080.7906981999986,5.150745999999344,None,,,,,,,,305,001,2026-03-30_17h30.24.825,exp_sofc,,2025.2.3,59.896809781791525,2026-03-30 17h30.25.486998 +0200,
,137,0,137,,,,,,,,,,,,,,,,,,,,,,None,None,,,,,,,,,,,,,137,0,137,0,2086.071085600008,,,,,,,,,,,,,,,,,,,,,,,,,,,,,,,,,,,,,,,,,,,,,,clips/clip_lied_22_nosub_1.mp4,audios/clip_lied_22_nosub_1.mp3,audiovisual,2086.0657083000115,2086.4499138999963,2086.651306600019,2086.651306600019,2086.6507994666795,2097.1840962000133,2097.383198800002,2097.1842656999943,[5.981472799991025],2097.272612700006,2097.2726493999944,None,2097.2726762999955,2097.272690700018,None,,,,,,,,,,,,,,305,001,2026-03-30_17h30.24.825,exp_sofc,,2025.2.3,59.896809781791525,2026-03-30 17h30.25.486998 +0200,
,138,0,138,,,,,,,,,,,,,,,,,,,,,,None,None,,,,,,,,,,,,,138,0,138,0,2097.383198800002,,,,,,,,,,,,,,,,,,,,,,,,,,,,,,,,,,,,,,,,,,,,,,clips/clip_wurst_19_sub_0.mp4,audios/clip_wurst_19_sub_0.mp3,audiovisual,2097.377178900002,2097.7762873000174,2097.976887099998,2097.976887099998,2097.9763704666734,2108.9932468000043,2109.1724157000135,2108.99342340001,[],2109.078524200013,2109.078571299993,None,2109.0786160000134,2109.0786321999913,None,,,,,,,,,,,,,,305,001,2026-03-30_17h30.24.825,exp_sofc,,2025.2.3,59.896809781791525,2026-03-30 17h30.25.486998 +0200,
,139,0,139,,,,,,,,,,,,,,,,,,,,,,3,None,2.943349799985299,None,,,,,,,,,,,139,0,139,0,2109.1724157000135,,,,,,,,,,,,,,,,,,,,,,,,,,,,,,,,,,,,,,,,,,,,,,clips/clip_claude_17_nosub_1.mp4,audios/silence.mp3,visual,2109.1664004000195,2109.5782069000124,2109.778080799995,2109.778080799995,2109.7781784666627,2111.0297922000173,2121.402250400017,2121.296959600004,[10.477029500005301],2121.396418499993,2124.3598783999914,3,2124.3599318999914,2124.359948600002,None,3,2121.402250400017,2121.402250400017,2121.402250400017,2.943349799985299,None,,,,,,,,305,001,2026-03-30_17h30.24.825,exp_sofc,,2025.2.3,59.896809781791525,2026-03-30 17h30.25.486998 +0200,
,140,0,140,,,,,,,,,,,,,,,,,,,,,,None,None,,,,,,,,,,,,,140,0,140,0,2124.4450402999937,,,,,,,,,,,,,,,,,,,,,,,,,,,,,,,,,,,,,,,,,,,,,,clips/clip_hund_05_sub_0.mp4,audios/silence.mp3,visual,2124.4406066999945,2124.8623085000145,2125.0630979000125,2125.0630979000125,2125.0627588666725,2126.314353900001,2136.2754865000024,2136.0965459000145,[4.220445599989034],2136.182773700013,2136.182808900019,None,2136.18283830001,2136.1828539000126,None,,,,,,,,,,,,,,305,001,2026-03-30_17h30.24.825,exp_sofc,,2025.2.3,59.896809781791525,2026-03-30 17h30.25.486998 +0200,
,141,0,141,,,,,,,,,,,,,,,,,,,,,,None,None,,,,,,,,,,,,,141,0,141,0,2136.2754865000024,,,,,,,,,,,,,,,,,,,,,,,,,,,,,,,,,,,,,,,,,,,,,,clips/clip_herz_06_sub_2.mp4,audios/silence.mp3,visual,2136.270878200012,2136.698057600006,2136.8983088000095,2136.8983088000095,2136.897865566662,2138.1501246000116,2147.7006701999926,2147.4984255000018,"[5.055061100021703, 8.497057200002018]",2147.590622299991,2147.590708500007,None,2147.5907522999914,2147.5907724999997,None,,,,,,,,,,,,,,305,001,2026-03-30_17h30.24.825,exp_sofc,,2025.2.3,59.896809781791525,2026-03-30 17h30.25.486998 +0200,
,142,0,142,,,,,,,,,,,,,,,,,,,,,,None,None,,,,,,,,,,,,,142,0,142,0,2147.7006701999926,,,,,,,,,,,,,,,,,,,,,,,,,,,,,,,,,,,,,,,,,,,,,,clips/clip_hund_18_sub_1.mp4,audios/silence.mp3,visual,2147.6943772000086,2148.0904389999923,2148.290997700009,2148.290997700009,2148.2900852666685,2149.5423875999986,2158.522306900006,2158.3240945000143,[7.015308500005631],2158.419035500003,2158.4190713000135,None,2158.4191140000185,2158.4191450999933,None,,,,,,,,,,,,,,305,001,2026-03-30_17h30.24.825,exp_sofc,,2025.2.3,59.896809781791525,2026-03-30 17h30.25.486998 +0200,
,143,0,143,,,,,,,,,,,,,,,,,,,,,,None,None,,,,,,,,,,,,,143,0,143,0,2158.522306900006,,,,,,,,,,,,,,,,,,,,,,,,,,,,,,,,,,,,,,,,,,,,,,clips/clip_hund_19_sub_0.mp4,audios/clip_hund_19_sub_0.mp3,audiovisual,2158.518316700007,2158.933000899997,2159.132434500003,2159.132434500003,2159.134268966682,2170.6766798000026,2170.6766798000026,2170.500052999996,[],2170.581546600006,2170.581599900004,None,2170.5816403999925,2170.5816601999977,None,,,,,,,,,,,,,,305,001,2026-03-30_17h30.24.825,exp_sofc,,2025.2.3,59.896809781791525,2026-03-30 17h30.25.486998 +0200,
,144,0,144,,,,,,,,,,,,,,,,,,,,,,2,None,4.673232699977234,None,,,,,,,,,,,144,0,144,0,2170.6766798000026,,,,,,,,,,,,,,,,,,,,,,,,,,,,,,,,,,,,,,,,,,,,,,clips/clip_herz_13_nosub_0.mp4,audios/silence.mp3,visual,2170.670526300004,2171.0840858000156,2171.2845566000033,2171.2845566000033,2171.2842705666594,2172.5365103000076,2182.5853135999932,2182.485651199997,[7.827883699996164],2182.581261000014,2187.269939799997,2,2187.270003900019,2187.270032200002,None,2,2182.5853135999932,2182.5853135999932,2182.5853135999932,4.673232699977234,None,,,,,,,,305,001,2026-03-30_17h30.24.825,exp_sofc,,2025.2.3,59.896809781791525,2026-03-30 17h30.25.486998 +0200,
