instruction_text,thisN,thisTrialN,thisRepN,key_resp_instruction.keys,key_resp_instruction.rt,key_resp_instruction.duration,clip_file,clip_path,sound_path,movie,subtitles,n_cut,clip_num,first_cut,second_cut,clip_duration,attention_check_question,attention_check_correct,attention_check_distractor_1,attention_check_distractor_2,attention_check_distractor_3,prac_attention_resp.keys,prac_attention_resp.rt,prac_attention_resp.duration,exp_atttention_resp.keys,exp_pause_resp.keys,exp_atttention_resp.rt,exp_atttention_resp.duration,exp_pause_resp.rt,exp_pause_resp.duration,instruction_trials.thisRepN,instruction_trials.thisTrialN,instruction_trials.thisN,instruction_trials.thisIndex,practice_trials.thisRepN,practice_trials.thisTrialN,practice_trials.thisN,practice_trials.thisIndex,experiment_trials.thisRepN,experiment_trials.thisTrialN,experiment_trials.thisN,experiment_trials.thisIndex,thisRow.t,notes,instructions.started,text_instruction.started,key_resp_instruction.started,instructions.stopped,instruction_trials.key_resp_instruction.keys,instruction_trials.key_resp_instruction.rt,instruction_trials.key_resp_instruction.duration,informed_consent.started,slider_informed_consent.started,text_informed_consent.started,informed_consent.stopped,slider_informed_consent.response,slider_informed_consent.rt,begin_practice.started,begin_practice_text.started,begin_practice.stopped,Practice_clip_name,Practice_video_used,Practice_audio_used,Practice_modality,Practice_subtitles,Practice_attention_check,practice_clip.started,prac_feedback.started,prac_fixation_cross.started,prac_fixation_cross.stopped,prac_clip.started,prac_sound.started,prac_sound.stopped,prac_clip.stopped,practice_clip.stopped,prac_all_cut_rts,practice_attention_check.started,practice_attention_check.stopped,practice_trials.prac_attention_resp.keys,Practice_correct_key_required,prac_attention_resp.started,prac_question.started,prac_options.started,practice_trials.prac_attention_resp.rt,practice_trials.prac_attention_resp.duration,begin_experiment.started,begin_experiment_text.started,begin_experiment.stopped,video_used,audio_used,condition_modality,experiment_clip.started,exp_fixation_cross.started,exp_fixation_cross.stopped,exp_clip.started,exp_sound.started,exp_sound.stopped,exp_clip.stopped,experiment_clip.stopped,all_cut_rts,experiment_attention_check.started,experiment_attention_check.stopped,experiment_trials.exp_atttention_resp.keys,experiment_pause.started,experiment_pause.stopped,experiment_trials.exp_pause_resp.keys,correct_key_required,exp_atttention_resp.started,exp_question.started,exp_options.started,experiment_trials.exp_atttention_resp.rt,experiment_trials.exp_atttention_resp.duration,exp_pause_text.started,exp_pause_resp.started,exp_countdown.started,experiment_trials.exp_pause_resp.rt,experiment_trials.exp_pause_resp.duration,end.started,text_end.started,participant,session,date,expName,expVersion,psychopyVersion,frameRate,expStart,
"Herzlich willkommen!

Vielen Dank, dass Sie an unserer Studie teilnehmen. Die Untersuchung wird insgesamt etwa 35 Minuten in Anspruch nehmen.

Bevor wir beginnen, beachten Sie bitte folgende Voraussetzungen für die Teilnahme:
• Sie sind mindestens 18 Jahre alt.
• Ihre Muttersprache ist Deutsch.

(Drücken Sie die Leertaste, um fortzufahren)",0,0,0,space,9.763726400007727,None,,,,,,,,,,,,,,,,,,,,,,,,,0,0,0,0,,,,,,,,,0.07310960002359934,,0.01689900000928901,0.07310960002359934,0.07310960002359934,9.848278200021014,space,9.763726400007727,None,,,,,,,,,,,,,,,,,,,,,,,,,,,,,,,,,,,,,,,,,,,,,,,,,,,,,,,,,,,,,,,,,,,,,310,001,2026-03-30_19h15.26.813,exp_sofc,,2025.2.3,60.0959371464862,2026-03-30 19h15.28.089558 +0200,
"Ablauf der Studie

Ihnen werden in schneller Abfolge viele kurze Filmclips gezeigt.
Ihre Aufgabe ist einfach:

Drücken Sie jedes Mal die Leertaste, wenn Sie einen Filmschnitt (Cut) erkennen.

Zusätzlich werden Ihnen gelegentlich kurze Verständnisfragen zu den gezeigten Clips gestellt.

(Drücken Sie die Leertaste, um fortzufahren),",1,1,0,space,17.429554500005906,None,,,,,,,,,,,,,,,,,,,,,,,,,0,1,1,1,,,,,,,,,9.890421200019773,,9.848545800021384,9.890421200019773,9.890421200019773,27.326688100001775,space,17.429554500005906,None,,,,,,,,,,,,,,,,,,,,,,,,,,,,,,,,,,,,,,,,,,,,,,,,,,,,,,,,,,,,,,,,,,,,,310,001,2026-03-30_19h15.26.813,exp_sofc,,2025.2.3,60.0959371464862,2026-03-30 19h15.28.089558 +0200,
"Freiwilligkeit Ihrer Teilnahme

Ihre Teilnahme an dieser Studie ist absolut freiwillig. Sie können das Experiment jederzeit und ohne Angabe von Gründen abbrechen, ohne dass Ihnen daraus irgendwelche Nachteile entstehen.

Sollten Sie die Studie vorzeitig beenden, werden Ihre bis dahin erhobenen Daten umgehend gelöscht und nicht gespeichert.

(Drücken Sie die Leertaste, um fortzufahren)",2,2,0,space,6.5449876000056975,None,,,,,,,,,,,,,,,,,,,,,,,,,0,2,2,2,,,,,,,,,27.514243700017687,,27.326904600020498,27.514243700017687,27.514243700017687,34.076322000008076,space,6.5449876000056975,None,,,,,,,,,,,,,,,,,,,,,,,,,,,,,,,,,,,,,,,,,,,,,,,,,,,,,,,,,,,,,,,,,,,,,310,001,2026-03-30_19h15.26.813,exp_sofc,,2025.2.3,60.0959371464862,2026-03-30 19h15.28.089558 +0200,
"Datenschutz und Anonymität

Die Erhebung und Auswertung Ihrer Daten erfolgt am Fachbereich Psychologie der Universität Tübingen und ist vollständig anonym. Ihr Name wird zu keinem Zeitpunkt erfragt oder gespeichert. Niemand wird Ihre Daten mit Ihrer Person in Verbindung bringen können.

Die anonymisierten Experimentaldaten werden nach Abschluss der Erhebung für mindestens 10 Jahre gespeichert und zu Forschungszwecken in einer öffentlichen Datenbank zugänglich gemacht.

(Drücken Sie die Leertaste, um fortzufahren),",3,3,0,space,8.603268200007733,None,,,,,,,,,,,,,,,,,,,,,,,,,0,3,3,3,,,,,,,,,34.1312410000246,,34.07653530000243,34.1312410000246,34.1312410000246,42.74762860001647,space,8.603268200007733,None,,,,,,,,,,,,,,,,,,,,,,,,,,,,,,,,,,,,,,,,,,,,,,,,,,,,,,,,,,,,,,,,,,,,,310,001,2026-03-30_19h15.26.813,exp_sofc,,2025.2.3,60.0959371464862,2026-03-30 19h15.28.089558 +0200,
"Einverständniserklärung

Bitte lesen Sie die folgende Erklärung aufmerksam durch:

Ich bestätige, dass ich über 18 Jahre alt bin und ausreichend Zeit hatte, mich für die Teilnahme zu entscheiden. Ich wurde über die Erhebung, Verarbeitung und öffentliche Zugänglichmachung meiner anonymisierten Daten angemessen informiert.
Ich bin mir bewusst, dass ich das Experiment jederzeit abbrechen kann.

(Drücken Sie die Leertaste, um fortzufahren)",4,4,0,space,3.773792099993443,None,,,,,,,,,,,,,,,,,,,,,,,,,0,4,4,4,,,,,,,,,42.789207399997395,,42.747820300020976,42.789207399997395,42.789207399997395,46.5788391000242,space,3.773792099993443,None,,,,,,,,,,,,,,,,,,,,,,,,,,,,,,,,,,,,,,,,,,,,,,,,,,,,,,,,,,,,,,,,,,,,,310,001,2026-03-30_19h15.26.813,exp_sofc,,2025.2.3,60.0959371464862,2026-03-30 19h15.28.089558 +0200,
,,,,,,,,,,,,,,,,,,,,,,,,,,,,,,,,,,,,,,,,,,,,,,,,,,,,46.58064580001519,46.59544740000274,46.59544740000274,51.21973959999741,ich stimme zu,4.623013100004755,,,,,,,,,,,,,,,,,,,,,,,,,,,,,,,,,,,,,,,,,,,,,,,,,,,,,,,,,,,,,,,310,001,2026-03-30_19h15.26.813,exp_sofc,,2025.2.3,60.0959371464862,2026-03-30 19h15.28.089558 +0200,
,,,,,,,,,,,,,,,,,,,,,,,,,,,,,,,,,,,,,,,,,,,,,,,,,,,,,,,,,,51.21989930002019,51.2354244000162,56.22680709999986,,,,,,,,,,,,,,,,,,,,,,,,,,,,,,,,,,,,,,,,,,,,,,,,,,,,,,,,,,,,310,001,2026-03-30_19h15.26.813,exp_sofc,,2025.2.3,60.0959371464862,2026-03-30 19h15.28.089558 +0200,
,0,0,0,,,,clip_hund_06_nosub_0,clips/clip_hund_06_nosub_0.mp4,audios/clip_hund_06_nosub_0.mp3,hund,nosub,0,6,NA,NA,10860,Wie sieht das Studio aus?,unaufgeräumt,sehr ordentlich,komplett leer,stark überfüllt,None,,,,,,,,,,,,,0,0,0,2,,,,,56.4177253000089,,,,,,,,,,,,,,,,,,clip_hund_31_sub_0,clips/clip_hund_31_sub_0.mp4,audios/silence.mp3,visual,sub,False,56.411196500004735,56.4177253000089,56.71947010001168,56.91949910001131,56.91949910001131,56.920399966682695,58.17125240000314,65.70781620001071,65.3833310000191,[],65.53726400001324,65.53733800002374,None,,,,,,,,,,,,,,,,,,,,,,,,,,,,,,,,,,,,,,,,,310,001,2026-03-30_19h15.26.813,exp_sofc,,2025.2.3,60.0959371464862,2026-03-30 19h15.28.089558 +0200,
,1,1,0,,,,clip_weißt_18_nosub_1,clips/clip_weißt_18_nosub_1.mp4,audios/silence.mp3,weißt,nosub,1,18,5680.0,NA,12000,Wie wirken die Personen?,überrascht,wütend,verzweifelt,gelangweilt,None,,,,,,,,,,,,,0,1,1,7,,,,,65.70781620001071,,,,,,,,,,,,,,,,,,clip_hund_28_nosub_0,clips/clip_hund_28_nosub_0.mp4,audios/clip_hund_28_nosub_0.mp3,audiovisual,nosub,False,65.70192960000713,65.70781620001071,66.05018240000936,66.25407240001368,66.25407240001368,66.25050646666593,76.44622820001678,76.44622820001678,76.12495310002123,[],76.28940070001408,76.28947590000462,None,,,,,,,,,,,,,,,,,,,,,,,,,,,,,,,,,,,,,,,,,310,001,2026-03-30_19h15.26.813,exp_sofc,,2025.2.3,60.0959371464862,2026-03-30 19h15.28.089558 +0200,
,2,2,0,,,,clip_weißt_21_nosub_0,clips/clip_weißt_21_nosub_0.mp4,audios/silence.mp3,weißt,nosub,0,21,NA,NA,10080,Wo stehen die Personen?,am Balkongeländer,am Strand,an einer Bushaltestelle,im Wald,1,7.585956599999918,None,,,,,,,,,,,0,2,2,1,,,,,76.44622820001678,,,,,,,,,,,,,,,,,,clip_weißt_09_sub_1,clips/clip_weißt_09_sub_1.mp4,audios/silence.mp3,visual,sub,True,76.44024940000963,76.44622820001678,76.80109390002326,77.00091220001923,77.00091220001923,77.00051676668615,78.25310530001298,86.20810280001024,86.0323990000179,[6.015520699991612],86.20211000001291,93.80901590001304,1,4,86.20810280001024,86.20810280001024,86.20810280001024,7.585956599999918,None,,,,,,,,,,,,,,,,,,,,,,,,,,,,,,,,,,,310,001,2026-03-30_19h15.26.813,exp_sofc,,2025.2.3,60.0959371464862,2026-03-30 19h15.28.089558 +0200,
,3,3,0,,,,clip_hund_31_sub_0,clips/clip_hund_31_sub_0.mp4,audios/silence.mp3,hund,sub,1,31,1966.0,NA,8433,Welche Tageszeit ist es?,abends,morgens,mittags,nachts,3,6.601929700002074,None,,,,,,,,,,,0,3,3,9,,,,,93.9800791000016,,,,,,,,,,,,,,,,,,clip_weißt_10_nosub_1,clips/clip_weißt_10_nosub_1.mp4,audios/clip_weißt_10_nosub_1.mp3,audiovisual,nosub,True,93.96882290000212,93.9800791000016,94.30918370001018,94.5119326999993,94.5119326999993,94.50949276666894,105.52698290001717,105.67559009999968,105.52888800000073,[5.482220000005327],105.67049810002209,112.27934610002558,3,3,105.67559009999968,105.67559009999968,105.67559009999968,6.601929700002074,None,,,,,,,,,,,,,,,,,,,,,,,,,,,,,,,,,,,310,001,2026-03-30_19h15.26.813,exp_sofc,,2025.2.3,60.0959371464862,2026-03-30 19h15.28.089558 +0200,
,4,4,0,,,,clip_hund_26_sub_1,clips/clip_hund_26_sub_1.mp4,audios/silence.mp3,hund,sub,0,26,NA,NA,9333,Wie wirkt die Frau?,amüsiert,hasserfüllt,traurig,ängstlich,None,,,,,,,,,,,,,0,4,4,3,,,,,112.45658550001099,,,,,,,,,,,,,,,,,,clip_weißt_18_nosub_1,clips/clip_weißt_18_nosub_1.mp4,audios/silence.mp3,visual,nosub,False,112.44717940001283,112.45658550001099,112.78058600000804,112.9805764000048,112.9805764000048,112.98014996666849,114.23221040001954,125.29252980000456,125.001021700009,[6.736497000005329],125.13699330002419,125.13704130001133,None,,,,,,,,,,,,,,,,,,,,,,,,,,,,,,,,,,,,,,,,,310,001,2026-03-30_19h15.26.813,exp_sofc,,2025.2.3,60.0959371464862,2026-03-30 19h15.28.089558 +0200,
,5,5,0,,,,clip_hund_02_sub_1,clips/clip_hund_02_sub_1.mp4,audios/clip_hund_02_sub_1.mp3,hund,sub,1,2,8300.0,NA,9900,Welche Farbe hat der Pullover der Frau?,grün,schwarz,blau,rot,1,5.162436799990246,None,,,,,,,,,,,0,5,5,8,,,,,125.29252980000456,,,,,,,,,,,,,,,,,,clip_wurst_09_sub_1,clips/clip_wurst_09_sub_1.mp4,audios/clip_wurst_09_sub_1.mp3,audiovisual,sub,True,125.28434370001196,125.29252980000456,125.6416687000019,125.84268980001798,125.84268980001798,125.84205136666812,,137.27846600001794,137.12801330001093,[],137.27365400001872,142.44416320000892,1,1,137.27846600001794,137.27846600001794,137.27846600001794,5.162436799990246,None,,,,,,,,,,,,,,,,,,,,,,,,,,,,,,,,,,,310,001,2026-03-30_19h15.26.813,exp_sofc,,2025.2.3,60.0959371464862,2026-03-30 19h15.28.089558 +0200,
,6,6,0,,,,clip_hund_25_sub_1,clips/clip_hund_25_sub_1.mp4,audios/silence.mp3,hund,sub,1,25,5466.0,NA,8300,Mit was essen die Personen?,mit ihren Händen,mit Messer und Gabel,mit Stäbchen,mit einem Löffel,3,2.8425826000166126,None,,,,,,,,,,,0,6,6,11,,,,,142.63273350000964,,,,,,,,,,,,,,,,,,clip_weißt_05_sub_0,clips/clip_weißt_05_sub_0.mp4,audios/clip_weißt_05_sub_0.mp3,audiovisual,sub,True,142.62466820000554,142.63273350000964,142.9506159000157,143.15307240001857,143.15307240001857,143.1508609666819,,153.1323370000173,152.95131090001087,[],153.12612430000445,155.98167590002413,3,3,153.1323370000173,153.1323370000173,153.1323370000173,2.8425826000166126,None,,,,,,,,,,,,,,,,,,,,,,,,,,,,,,,,,,,310,001,2026-03-30_19h15.26.813,exp_sofc,,2025.2.3,60.0959371464862,2026-03-30 19h15.28.089558 +0200,
,7,7,0,,,,clip_weißt_05_sub_0,clips/clip_weißt_05_sub_0.mp4,audios/clip_weißt_05_sub_0.mp3,weißt,sub,0,5,NA,NA,9767,Wer trägt die Leiter?,die Frau,der Mann,beide,keiner,None,,,,,,,,,,,,,0,7,7,0,,,,,156.16760200000135,,,,,,,,,,,,,,,,,,clip_hund_26_sub_1,clips/clip_hund_26_sub_1.mp4,audios/silence.mp3,visual,sub,False,156.15508820000105,156.16760200000135,156.48366630001692,156.6862509000057,156.6862509000057,156.6851062666722,157.9362312000012,166.34882530002506,166.04965230001835,[],166.19135390000883,166.19140270000207,None,,,,,,,,,,,,,,,,,,,,,,,,,,,,,,,,,,,,,,,,,310,001,2026-03-30_19h15.26.813,exp_sofc,,2025.2.3,60.0959371464862,2026-03-30 19h15.28.089558 +0200,
,8,8,0,,,,clip_weißt_10_nosub_1,clips/clip_weißt_10_nosub_1.mp4,audios/clip_weißt_10_nosub_1.mp3,weißt,nosub,1,10,4280.0,NA,11000,Was macht der Mann?,er greift an den Fernseher,er schaltet das Radio ein,er wirft eine Flasche,er öffnet das Fenster,None,,,,,,,,,,,,,0,8,8,6,,,,,166.34882530002506,,,,,,,,,,,,,,,,,,clip_hund_02_sub_1,clips/clip_hund_02_sub_1.mp4,audios/clip_hund_02_sub_1.mp3,audiovisual,sub,False,166.3432795999979,166.34882530002506,166.6908738000202,166.89634710000246,166.89634710000246,166.89163266666972,177.11579070001608,177.11579070001608,176.8096323000209,[9.655891300004441],176.94102450000355,176.94109510001726,None,,,,,,,,,,,,,,,,,,,,,,,,,,,,,,,,,,,,,,,,,310,001,2026-03-30_19h15.26.813,exp_sofc,,2025.2.3,60.0959371464862,2026-03-30 19h15.28.089558 +0200,
,9,9,0,,,,clip_hund_28_nosub_0,clips/clip_hund_28_nosub_0.mp4,audios/clip_hund_28_nosub_0.mp3,hund,nosub,0,28,NA,NA,9840,Was steht auf dem Tisch vor den Personen?,Weinflasche mit Gläsern,Wasser,Bier,Kaffee,None,,,,,,,,,,,,,0,9,9,4,,,,,177.11579070001608,,,,,,,,,,,,,,,,,,clip_hund_06_nosub_0,clips/clip_hund_06_nosub_0.mp4,audios/clip_hund_06_nosub_0.mp3,audiovisual,nosub,False,177.1073761000007,177.11579070001608,177.45018450001953,177.65341260001878,177.65341260001878,177.65125896668567,,188.8363680000184,188.53381030002492,[],188.69417699999758,188.6942667000112,None,,,,,,,,,,,,,,,,,,,,,,,,,,,,,,,,,,,,,,,,,310,001,2026-03-30_19h15.26.813,exp_sofc,,2025.2.3,60.0959371464862,2026-03-30 19h15.28.089558 +0200,
,10,10,0,,,,clip_wurst_09_sub_1,clips/clip_wurst_09_sub_1.mp4,audios/clip_wurst_09_sub_1.mp3,wurst,sub,1,9,3666.0,NA,11267,Wer sind die alten Menschen wahrscheinlich?,Großeltern,Eltern,Geschwister,Nachbarn,None,,,,,,,,,,,,,0,10,10,10,,,,,188.8363680000184,,,,,,,,,,,,,,,,,,clip_weißt_21_nosub_0,clips/clip_weißt_21_nosub_0.mp4,audios/silence.mp3,visual,nosub,False,188.83100780000677,188.8363680000184,189.20769070001552,189.42206609999994,189.40641390002565,189.40524466667947,190.65707080002176,199.8079987000092,199.50459120000596,[],199.65547260001767,199.65553950000321,None,,,,,,,,,,,,,,,,,,,,,,,,,,,,,,,,,,,,,,,,,310,001,2026-03-30_19h15.26.813,exp_sofc,,2025.2.3,60.0959371464862,2026-03-30 19h15.28.089558 +0200,
,11,11,0,,,,clip_weißt_09_sub_1,clips/clip_weißt_09_sub_1.mp4,audios/silence.mp3,weißt,sub,1,9,4866.0,NA,9000,Was macht die Frau?,sie wickelt ein Band auf,sie näht,sie strickt,sie faltet Wäsche,None,,,,,,,,,,,,,0,11,11,5,,,,,199.8079987000092,,,,,,,,,,,,,,,,,,clip_hund_25_sub_1,clips/clip_hund_25_sub_1.mp4,audios/silence.mp3,visual,sub,False,199.8016692000092,199.8079987000092,200.16417900001397,200.36444870001287,200.36444870001287,200.3637852666764,201.61586340001668,208.850276400015,208.69577930000378,[8.908750500006136],208.84237340002437,208.8424553000077,None,,,,,,,,,,,,,,,,,,,,,,,,,,,,,,,,,,,,,,,,,310,001,2026-03-30_19h15.26.813,exp_sofc,,2025.2.3,60.0959371464862,2026-03-30 19h15.28.089558 +0200,
,,,,,,,,,,,,,,,,,,,,,,,,,,,,,,,,,,,,,,,,,,,,,,,,,,,,,,,,,,,,,,,,,,,,,,,,,,,,,,,,,,,,,,208.84265520001645,208.850276400015,213.84334490000037,,,,,,,,,,,,,,,,,,,,,,,,,,,,,,,,310,001,2026-03-30_19h15.26.813,exp_sofc,,2025.2.3,60.0959371464862,2026-03-30 19h15.28.089558 +0200,
,0,0,0,,,,,,,,,,,,,,,,,,,,,,None,None,,,,,,,,,,,,,0,0,0,0,213.9987955999968,,,,,,,,,,,,,,,,,,,,,,,,,,,,,,,,,,,,,,,,,,,,,,clips/clip_holo_24_sub_2.mp4,audios/clip_holo_24_sub_2.mp3,audiovisual,213.99277370001073,214.35229970002547,214.56656420000945,214.56656420000945,214.55323416667332,224.3859255000134,224.68417210000916,224.38638790001278,"[7.052932299993699, 9.797023199993419]",224.52791699999943,224.5279924000206,None,224.5280586000008,224.52810890000546,None,,,,,,,,,,,,,,310,001,2026-03-30_19h15.26.813,exp_sofc,,2025.2.3,60.0959371464862,2026-03-30 19h15.28.089558 +0200,
,1,0,1,,,,,,,,,,,,,,,,,,,,,,None,None,,,,,,,,,,,,,1,0,1,0,224.68417210000916,,,,,,,,,,,,,,,,,,,,,,,,,,,,,,,,,,,,,,,,,,,,,,clips/clip_holo_08_sub_2.mp4,audios/silence.mp3,visual,224.68035100001725,225.0282638000208,225.22761590001755,225.22761590001755,225.22737166667164,226.4794985000044,236.30003550002584,236.01119850002578,"[4.400195199996233, 9.102545000001555]",236.16897320002317,236.16904649999924,None,236.16911660000915,236.16915850000805,None,,,,,,,,,,,,,,310,001,2026-03-30_19h15.26.813,exp_sofc,,2025.2.3,60.0959371464862,2026-03-30 19h15.28.089558 +0200,
,2,0,2,,,,,,,,,,,,,,,,,,,,,,None,None,,,,,,,,,,,,,2,0,2,0,236.30003550002584,,,,,,,,,,,,,,,,,,,,,,,,,,,,,,,,,,,,,,,,,,,,,,clips/clip_herz_16_nosub_0.mp4,audios/silence.mp3,visual,236.2971679000184,236.66877630000818,236.87058499999694,236.87058499999694,236.86959816667175,238.1209600000002,246.20312720001675,245.90017090001493,[],246.06383800000185,246.06394210000872,None,246.0640096999996,246.0640415000089,None,,,,,,,,,,,,,,310,001,2026-03-30_19h15.26.813,exp_sofc,,2025.2.3,60.0959371464862,2026-03-30 19h15.28.089558 +0200,
,3,0,3,,,,,,,,,,,,,,,,,,,,,,3,None,8.678518000000622,None,,,,,,,,,,,3,0,3,0,246.20312720001675,,,,,,,,,,,,,,,,,,,,,,,,,,,,,,,,,,,,,,,,,,,,,,clips/clip_holo_27_nosub_1.mp4,audios/silence.mp3,visual,246.19835680001415,246.5773418000026,246.80479660001583,246.79638490002253,246.77598166666965,248.02783450001152,256.9364803000062,256.77529060002416,"[0.46116569999139756, 5.290810399979819]",256.92970420001075,265.6177275000082,3,265.61780110001564,265.61783260002267,None,4,256.9364803000062,256.9364803000062,256.9364803000062,8.678518000000622,None,,,,,,,,310,001,2026-03-30_19h15.26.813,exp_sofc,,2025.2.3,60.0959371464862,2026-03-30 19h15.28.089558 +0200,
,4,0,4,,,,,,,,,,,,,,,,,,,,,,None,None,,,,,,,,,,,,,4,0,4,0,265.7845118000114,,,,,,,,,,,,,,,,,,,,,,,,,,,,,,,,,,,,,,,,,,,,,,clips/clip_hund_36_sub_2.mp4,audios/clip_hund_36_sub_2.mp3,audiovisual,265.7796042000118,266.1191349000146,266.3316874000011,266.3316874000011,266.31937336668875,,275.74281740002334,275.48397540001315,"[4.315331600024365, 6.109507300017867]",275.6088024000055,275.608850300021,None,275.6089013000019,275.608928200003,None,,,,,,,,,,,,,,310,001,2026-03-30_19h15.26.813,exp_sofc,,2025.2.3,60.0959371464862,2026-03-30 19h15.28.089558 +0200,
,5,0,5,,,,,,,,,,,,,,,,,,,,,,None,None,,,,,,,,,,,,,5,0,5,0,275.74281740002334,,,,,,,,,,,,,,,,,,,,,,,,,,,,,,,,,,,,,,,,,,,,,,clips/clip_lied_07_sub_1.mp4,audios/silence.mp3,visual,275.73687470000004,276.1120991000207,276.3229966000072,276.3229966000072,276.3123560666902,277.56405120002455,285.6463861000084,285.3426880000043,[4.469346500001848],285.474675800011,285.4747783000057,None,285.4748588000075,285.47490600001765,None,,,,,,,,,,,,,,310,001,2026-03-30_19h15.26.813,exp_sofc,,2025.2.3,60.0959371464862,2026-03-30 19h15.28.089558 +0200,
,6,0,6,,,,,,,,,,,,,,,,,,,,,,None,None,,,,,,,,,,,,,6,0,6,0,285.6463861000084,,,,,,,,,,,,,,,,,,,,,,,,,,,,,,,,,,,,,,,,,,,,,,clips/clip_wurst_16_nosub_0.mp4,audios/clip_wurst_16_nosub_0.mp3,audiovisual,285.6412287999992,285.9857369000092,286.1889512000198,286.1889512000198,286.1861641666658,296.2130743000016,296.4808346000209,296.21356890001334,[],296.33124330002465,296.3312957000162,None,296.331341800018,296.3313695000252,None,,,,,,,,,,,,,,310,001,2026-03-30_19h15.26.813,exp_sofc,,2025.2.3,60.0959371464862,2026-03-30 19h15.28.089558 +0200,
,7,0,7,,,,,,,,,,,,,,,,,,,,,,None,None,,,,,,,,,,,,,7,0,7,0,296.4808346000209,,,,,,,,,,,,,,,,,,,,,,,,,,,,,,,,,,,,,,,,,,,,,,clips/clip_weißt_04_sub_0.mp4,audios/silence.mp3,visual,296.4738290000241,296.82994890000555,297.030542100023,297.05149490002077,297.04720876668966,298.2989855000051,307.4643391999998,307.1467820999969,[],307.2970488000137,307.29714090001653,None,307.2972248000151,307.29727740000817,None,,,,,,,,,,,,,,310,001,2026-03-30_19h15.26.813,exp_sofc,,2025.2.3,60.0959371464862,2026-03-30 19h15.28.089558 +0200,
,8,0,8,,,,,,,,,,,,,,,,,,,,,,None,None,,,,,,,,,,,,,8,0,8,0,307.4643391999998,,,,,,,,,,,,,,,,,,,,,,,,,,,,,,,,,,,,,,,,,,,,,,clips/clip_hund_32_nosub_1.mp4,audios/clip_hund_32_nosub_1.mp3,audiovisual,307.4588149000192,307.7987101000035,307.9992622999998,307.9992622999998,307.998915266686,318.0300234000024,318.35204310002155,318.0303021,[5.043310000008205],318.16799600000377,318.1680855000159,None,318.1681494000077,318.16818540001987,None,,,,,,,,,,,,,,310,001,2026-03-30_19h15.26.813,exp_sofc,,2025.2.3,60.0959371464862,2026-03-30 19h15.28.089558 +0200,
,9,0,9,,,,,,,,,,,,,,,,,,,,,,None,None,,,,,,,,,,,,,9,0,9,0,318.35204310002155,,,,,,,,,,,,,,,,,,,,,,,,,,,,,,,,,,,,,,,,,,,,,,clips/clip_lied_21_nosub_2.mp4,audios/clip_lied_21_nosub_2.mp3,audiovisual,318.34596350000356,318.6812781000044,318.89161580000655,318.89161580000655,318.8825057666729,330.40085780000663,330.7385337000014,330.40116980002495,"[5.000113799993414, 10.543802700005472]",330.55108299999847,330.5511600000027,None,330.5512387000199,330.55127920000814,None,,,,,,,,,,,,,,310,001,2026-03-30_19h15.26.813,exp_sofc,,2025.2.3,60.0959371464862,2026-03-30 19h15.28.089558 +0200,
,10,0,10,,,,,,,,,,,,,,,,,,,,,,None,None,,,,,,,,,,,,,10,0,10,0,330.7385337000014,,,,,,,,,,,,,,,,,,,,,,,,,,,,,,,,,,,,,,,,,,,,,,clips/clip_wurst_07_sub_0.mp4,audios/clip_wurst_07_sub_0.mp3,audiovisual,330.73299119999865,331.05678980000084,331.25989300000947,331.25989300000947,331.25684256668706,341.28923360002227,341.566284200002,341.28952520000166,[],341.4320908000227,341.43221120000817,None,341.43234369999846,341.43241590002435,None,,,,,,,,,,,,,,310,001,2026-03-30_19h15.26.813,exp_sofc,,2025.2.3,60.0959371464862,2026-03-30 19h15.28.089558 +0200,
,11,0,11,,,,,,,,,,,,,,,,,,,,,,None,None,,,,,,,,,,,,,11,0,11,0,341.566284200002,,,,,,,,,,,,,,,,,,,,,,,,,,,,,,,,,,,,,,,,,,,,,,clips/clip_claude_27_nosub_0.mp4,audios/silence.mp3,visual,341.5594304999977,341.9410994000209,342.1453850000107,342.1453850000107,342.1403755666727,343.39238370000385,354.4659470000188,354.15953699999955,[],354.307596300001,354.30771910000476,None,354.30782310001086,354.30789580001147,None,,,,,,,,,,,,,,310,001,2026-03-30_19h15.26.813,exp_sofc,,2025.2.3,60.0959371464862,2026-03-30 19h15.28.089558 +0200,
,12,0,12,,,,,,,,,,,,,,,,,,,,,,None,None,,,,,,,,,,,,,12,0,12,0,354.4659470000188,,,,,,,,,,,,,,,,,,,,,,,,,,,,,,,,,,,,,,,,,,,,,,clips/clip_hund_16_nosub_1.mp4,audios/clip_hund_16_nosub_1.mp3,audiovisual,354.4612940000079,354.82000550001976,355.01984420002555,355.01984420002555,355.01974996668673,366.15644990000874,366.15644990000874,365.88612330000615,[9.541600199998356],366.02307880000444,366.02316910002264,None,366.0232430000033,366.0232955000247,None,,,,,,,,,,,,,,310,001,2026-03-30_19h15.26.813,exp_sofc,,2025.2.3,60.0959371464862,2026-03-30 19h15.28.089558 +0200,
,13,0,13,,,,,,,,,,,,,,,,,,,,,,None,None,,,,,,,,,,,,,13,0,13,0,366.15644990000874,,,,,,,,,,,,,,,,,,,,,,,,,,,,,,,,,,,,,,,,,,,,,,clips/clip_lied_06_nosub_1.mp4,audios/silence.mp3,visual,366.15090950002195,366.5367611000256,366.74768510001013,366.74768510001013,366.73777136666854,367.9886916000105,379.6483920000028,379.3568918000092,[],379.4940229000058,379.4941072000074,None,379.4941919000121,379.49426130001666,None,,,,,,,,,,,,,,310,001,2026-03-30_19h15.26.813,exp_sofc,,2025.2.3,60.0959371464862,2026-03-30 19h15.28.089558 +0200,
,14,0,14,,,,,,,,,,,,,,,,,,,,,,2,None,4.4243379999825265,None,,,,,,,,,,,14,0,14,0,379.6483920000028,,,,,,,,,,,,,,,,,,,,,,,,,,,,,,,,,,,,,,,,,,,,,,clips/clip_hund_27_sub_1.mp4,audios/clip_hund_27_sub_1.mp3,audiovisual,379.64296940001077,380.0004155000206,380.2055397000222,380.2055397000222,380.2003317666861,390.43227849999676,390.5900419000245,390.43256470002234,[],390.58306450000964,395.01593090000097,2,395.01602020001155,395.0160535000032,None,2,390.5900419000245,390.5900419000245,390.5900419000245,4.4243379999825265,None,,,,,,,,310,001,2026-03-30_19h15.26.813,exp_sofc,,2025.2.3,60.0959371464862,2026-03-30 19h15.28.089558 +0200,
,15,0,15,,,,,,,,,,,,,,,,,,,,,,None,None,,,,,,,,,,,,,15,0,15,0,395.1682691000169,,,,,,,,,,,,,,,,,,,,,,,,,,,,,,,,,,,,,,,,,,,,,,clips/clip_hund_19_nosub_0.mp4,audios/silence.mp3,visual,395.1624843000027,395.52480790001573,395.7262393000128,395.7262393000128,395.72438096668725,396.9756238000118,407.40812620002544,407.09212169999955,[],407.23219300000346,407.2322948000219,None,407.2323766000045,407.2324131000205,None,,,,,,,,,,,,,,310,001,2026-03-30_19h15.26.813,exp_sofc,,2025.2.3,60.0959371464862,2026-03-30 19h15.28.089558 +0200,
,16,0,16,,,,,,,,,,,,,,,,,,,,,,None,None,,,,,,,,,,,,,16,0,16,0,407.40812620002544,,,,,,,,,,,,,,,,,,,,,,,,,,,,,,,,,,,,,,,,,,,,,,clips/clip_holo_05_sub_2.mp4,audios/clip_holo_05_sub_2.mp3,audiovisual,407.40265850001015,407.7431609000196,407.9447138000105,407.9447138000105,407.9428909666642,417.0746806000243,417.3519213999971,417.07511430000886,[7.228487599990331],417.2100152000203,417.2101024000149,None,417.21018580000964,417.2102346000029,None,,,,,,,,,,,,,,310,001,2026-03-30_19h15.26.813,exp_sofc,,2025.2.3,60.0959371464862,2026-03-30 19h15.28.089558 +0200,
,17,0,17,,,,,,,,,,,,,,,,,,,,,,None,None,,,,,,,,,,,,,17,0,17,0,417.3519213999971,,,,,,,,,,,,,,,,,,,,,,,,,,,,,,,,,,,,,,,,,,,,,,clips/clip_wurst_27_nosub_1.mp4,audios/clip_wurst_27_nosub_1.mp3,audiovisual,417.3479248000076,417.725588900008,417.9278019000194,417.9199946000008,417.90981736669005,,428.3747187000117,428.1130590000248,[5.966826200019568],428.2321684000199,428.23225739999907,None,428.23232730000746,428.2323835999996,None,,,,,,,,,,,,,,310,001,2026-03-30_19h15.26.813,exp_sofc,,2025.2.3,60.0959371464862,2026-03-30 19h15.28.089558 +0200,
,18,0,18,,,,,,,,,,,,,,,,,,,,,,None,None,,,,,,,,,,,,,18,0,18,0,428.3747187000117,,,,,,,,,,,,,,,,,,,,,,,,,,,,,,,,,,,,,,,,,,,,,,clips/clip_claude_24_nosub_1.mp4,audios/silence.mp3,visual,428.3688967000053,428.7426617000019,428.943433700013,428.943433700013,428.94231446666913,430.1937368000217,435.43052429999807,435.1530959000229,[6.009237299993401],435.293462600006,435.2935351000051,None,435.2936106999987,435.2936582000111,None,,,,,,,,,,,,,,310,001,2026-03-30_19h15.26.813,exp_sofc,,2025.2.3,60.0959371464862,2026-03-30 19h15.28.089558 +0200,
,19,0,19,,,,,,,,,,,,,,,,,,,,,,None,None,,,,,,,,,,,,,19,0,19,0,435.43052429999807,,,,,,,,,,,,,,,,,,,,,,,,,,,,,,,,,,,,,,,,,,,,,,clips/clip_dampf_03_nosub_1.mp4,audios/silence.mp3,visual,435.4264816000068,435.8038775000023,436.00660079999943,436.00660079999943,436.00356216667956,437.2546178000048,443.8745385000075,443.6318503000075,[7.817296799999895],443.747603900003,443.74767750001047,None,443.7477555000223,443.74780430001556,None,,,,,,,,,,,,,,310,001,2026-03-30_19h15.26.813,exp_sofc,,2025.2.3,60.0959371464862,2026-03-30 19h15.28.089558 +0200,
,20,0,20,,,,,,,,,,,,,,,,,,,,,,None,None,,,,,,,,,,,,,20,0,20,0,443.8745385000075,,,,,,,,,,,,,,,,,,,,,,,,,,,,,,,,,,,,,,,,,,,,,,clips/clip_claude_19_nosub_0.mp4,audios/silence.mp3,visual,443.8668610000168,444.25743820000207,444.4585067000007,444.4585067000007,444.45719606668376,445.69568800000707,455.1847482000012,454.8907559000072,[],455.0195251000114,455.0196622000076,None,455.0197385000065,455.0197887000104,None,,,,,,,,,,,,,,310,001,2026-03-30_19h15.26.813,exp_sofc,,2025.2.3,60.0959371464862,2026-03-30 19h15.28.089558 +0200,
,21,0,21,,,,,,,,,,,,,,,,,,,,,,None,None,,,,,,,,,,,,,21,0,21,0,455.1847482000012,,,,,,,,,,,,,,,,,,,,,,,,,,,,,,,,,,,,,,,,,,,,,,clips/clip_claude_12_sub_0.mp4,audios/clip_claude_12_sub_0.mp3,audiovisual,455.1804727000126,455.5343842000002,455.7408611999999,455.7408611999999,455.73390416667485,464.9643869000138,465.2019959000172,464.9646838000044,[],465.08621890001814,465.08627010000055,None,465.08632750000106,465.0863551000075,None,,,,,,,,,,,,,,310,001,2026-03-30_19h15.26.813,exp_sofc,,2025.2.3,60.0959371464862,2026-03-30 19h15.28.089558 +0200,
,22,0,22,,,,,,,,,,,,,,,,,,,,,,None,None,,,,,,,,,,,,,22,0,22,0,465.2019959000172,,,,,,,,,,,,,,,,,,,,,,,,,,,,,,,,,,,,,,,,,,,,,,clips/clip_wurst_25_sub_1.mp4,audios/silence.mp3,visual,465.1979236000043,465.5872862000251,465.8015042000043,465.8015042000043,465.78793676666487,467.03117020000354,477.3083249000192,477.00547319999896,[],477.1421610000252,477.14224890002515,None,477.142337199999,477.1423743000196,None,,,,,,,,,,,,,,310,001,2026-03-30_19h15.26.813,exp_sofc,,2025.2.3,60.0959371464862,2026-03-30 19h15.28.089558 +0200,
,23,0,23,,,,,,,,,,,,,,,,,,,,,,None,None,,,,,,,,,,,,,23,0,23,0,477.3083249000192,,,,,,,,,,,,,,,,,,,,,,,,,,,,,,,,,,,,,,,,,,,,,,clips/clip_lied_03_sub_1.mp4,audios/clip_lied_03_sub_1.mp3,audiovisual,477.3024611000146,477.6493381000182,477.8686667000002,477.8589380000194,477.8477632666802,488.3811274000036,488.6676434999972,488.38143490001676,[5.30672069999855],488.50810420000926,488.5081910000008,None,488.5083929000248,488.5084572000196,None,,,,,,,,,,,,,,310,001,2026-03-30_19h15.26.813,exp_sofc,,2025.2.3,60.0959371464862,2026-03-30 19h15.28.089558 +0200,
,24,0,24,,,,,,,,,,,,,,,,,,,,,,None,None,,,,,,,,,,,,,24,0,24,0,488.6676434999972,,,,,,,,,,,,,,,,,,,,,,,,,,,,,,,,,,,,,,,,,,,,,,clips/clip_dampf_02_nosub_1.mp4,audios/clip_dampf_02_nosub_1.mp3,audiovisual,488.6616740000027,489.0201147000189,489.2220925000147,489.2220925000147,489.22150236668335,498.82776260000537,498.82776260000537,498.5519434000016,[6.64861760000349],498.6826359000115,498.6827117000066,None,498.6827792999975,498.6828308000113,None,,,,,,,,,,,,,,310,001,2026-03-30_19h15.26.813,exp_sofc,,2025.2.3,60.0959371464862,2026-03-30 19h15.28.089558 +0200,
,25,0,25,,,,,,,,,,,,,,,,,,,,,,None,None,,,,,,,,,,,,,25,0,25,0,498.82776260000537,,,,,,,,,,,,,,,,,,,,,,,,,,,,,,,,,,,,,,,,,,,,,,clips/clip_weißt_11_sub_0.mp4,audios/silence.mp3,visual,498.81851989999996,499.18495789999724,499.38622549999855,499.38622549999855,499.3851875666917,500.6369412000058,509.724865199998,509.4174324000196,[],509.5562336000148,509.5563234000001,None,509.55640220001806,509.55644830001984,None,,,,,,,,,,,,,,310,001,2026-03-30_19h15.26.813,exp_sofc,,2025.2.3,60.0959371464862,2026-03-30 19h15.28.089558 +0200,
,26,0,26,,,,,,,,,,,,,,,,,,,,,,None,None,,,,,,,,,,,,,26,0,26,0,509.724865199998,,,,,,,,,,,,,,,,,,,,,,,,,,,,,,,,,,,,,,,,,,,,,,clips/clip_claude_18_sub_0.mp4,audios/clip_claude_18_sub_0.mp3,audiovisual,509.7190009000187,510.060135000007,510.26151760001085,510.26151760001085,510.2604125666878,519.2913580000168,519.5668324000144,519.2916515000106,[],519.4369978000177,519.4370922000089,None,519.4371957000112,519.4372486000066,None,,,,,,,,,,,,,,310,001,2026-03-30_19h15.26.813,exp_sofc,,2025.2.3,60.0959371464862,2026-03-30 19h15.28.089558 +0200,
,27,0,27,,,,,,,,,,,,,,,,,,,,,,None,None,,,,,,,,,,,,,27,0,27,0,519.5668324000144,,,,,,,,,,,,,,,,,,,,,,,,,,,,,,,,,,,,,,,,,,,,,,clips/clip_weißt_15_sub_1.mp4,audios/silence.mp3,visual,519.5608646000037,519.94517240001,520.1678630000097,520.1594284000166,520.1426912666686,521.3947195000073,531.3735148000123,531.0765414000198,"[3.1381582999893, 6.007865299994592]",531.1948641000199,531.1949662000115,None,531.1950579000113,531.1951195000147,None,,,,,,,,,,,,,,310,001,2026-03-30_19h15.26.813,exp_sofc,,2025.2.3,60.0959371464862,2026-03-30 19h15.28.089558 +0200,
,28,0,28,,,,,,,,,,,,,,,,,,,,,,None,None,,,,,,,,,,,,,28,0,28,0,531.3735148000123,,,,,,,,,,,,,,,,,,,,,,,,,,,,,,,,,,,,,,,,,,,,,,clips/clip_hund_14_nosub_2.mp4,audios/clip_hund_14_nosub_2.mp3,audiovisual,531.3693328000081,531.7021930000046,531.9060095000023,531.9060095000023,531.9031568666726,,542.109251100017,541.8061177000054,"[1.699748199986061, 5.702038499992341]",541.9456035000039,541.9456697000132,None,541.945747300022,541.945798700006,None,,,,,,,,,,,,,,310,001,2026-03-30_19h15.26.813,exp_sofc,,2025.2.3,60.0959371464862,2026-03-30 19h15.28.089558 +0200,
,29,0,29,,,,,,,,,,,,,,,,,,,,,,None,None,,,,,,,,,,,,,29,0,29,0,542.109251100017,,,,,,,,,,,,,,,,,,,,,,,,,,,,,,,,,,,,,,,,,,,,,,clips/clip_herz_12_sub_0.mp4,audios/clip_herz_12_sub_0.mp3,audiovisual,542.1036467000085,542.4614326000155,542.6623502000002,542.6623502000002,542.6627797666918,,552.025939300016,551.7660488999973,[6.099697500001639],551.8928983000224,551.893015300011,None,551.8930762000091,551.8931180000072,None,,,,,,,,,,,,,,310,001,2026-03-30_19h15.26.813,exp_sofc,,2025.2.3,60.0959371464862,2026-03-30 19h15.28.089558 +0200,
,30,0,30,,,,,,,,,,,,,,,,,,,,,,None,None,,,,,,,,,,,,,30,0,30,0,552.025939300016,,,,,,,,,,,,,,,,,,,,,,,,,,,,,,,,,,,,,,,,,,,,,,clips/clip_herz_01_sub_1.mp4,audios/silence.mp3,visual,552.0212143000099,552.3936836000066,552.5953033000114,552.5953033000114,552.5934122666697,553.8455583000032,563.4347851000202,563.194301600015,[],563.3115699000191,563.3116583000228,None,563.311752700014,563.3117872000148,None,,,,,,,,,,,,,,310,001,2026-03-30_19h15.26.813,exp_sofc,,2025.2.3,60.0959371464862,2026-03-30 19h15.28.089558 +0200,
,31,0,31,,,,,,,,,,,,,,,,,,,,,,None,None,,,,,,,,,,,,,31,0,31,0,563.4347851000202,,,,,,,,,,,,,,,,,,,,,,,,,,,,,,,,,,,,,,,,,,,,,,clips/clip_lied_11_nosub_1.mp4,audios/silence.mp3,visual,563.4295857000106,563.8189540000167,564.0304888000246,564.0304888000246,564.0193689666669,565.271259000001,575.4265432000102,575.1200207000074,[8.101244399993448],575.2444375000196,575.2445257000218,None,575.2446329000231,575.2446840000048,None,,,,,,,,,,,,,,310,001,2026-03-30_19h15.26.813,exp_sofc,,2025.2.3,60.0959371464862,2026-03-30 19h15.28.089558 +0200,
,32,0,32,,,,,,,,,,,,,,,,,,,,,,2,None,4.815514000016265,None,,,,,,,,,,,32,0,32,0,575.4265432000102,,,,,,,,,,,,,,,,,,,,,,,,,,,,,,,,,,,,,,,,,,,,,,clips/clip_holo_21_nosub_1.mp4,audios/clip_holo_21_nosub_1.mp3,audiovisual,575.4203930000076,575.7469695000036,575.9486038000032,575.9486038000032,575.9472678666682,,586.3094183000212,586.1495414000237,[4.329097300011199],586.302872100001,591.1351886000193,2,591.1353392000019,591.1354031000228,None,2,586.3094183000212,586.3094183000212,586.3094183000212,4.815514000016265,None,,,,,,,,310,001,2026-03-30_19h15.26.813,exp_sofc,,2025.2.3,60.0959371464862,2026-03-30 19h15.28.089558 +0200,
,33,0,33,,,,,,,,,,,,,,,,,,,,,,None,None,,,,,,,,,,,,,33,0,33,0,591.2922972000088,,,,,,,,,,,,,,,,,,,,,,,,,,,,,,,,,,,,,,,,,,,,,,clips/clip_lied_19_sub_1.mp4,audios/silence.mp3,visual,591.2867297000194,591.6451439000084,591.8474754000199,591.8474754000199,591.8443093666904,593.0900639000174,602.8409695000155,602.5447947000212,[],602.6695550000004,602.6696271999972,None,602.6696928000019,602.6697394000075,None,,,,,,,,,,,,,,310,001,2026-03-30_19h15.26.813,exp_sofc,,2025.2.3,60.0959371464862,2026-03-30 19h15.28.089558 +0200,
,34,0,34,,,,,,,,,,,,,,,,,,,,,,2,None,6.2799465999996755,None,,,,,,,,,,,34,0,34,0,602.8409695000155,,,,,,,,,,,,,,,,,,,,,,,,,,,,,,,,,,,,,,,,,,,,,,clips/clip_weißt_29_sub_1.mp4,audios/clip_weißt_29_sub_1.mp3,audiovisual,602.83562540001,603.1706524000037,603.3737408000161,603.3737408000161,603.3715797666848,,615.1328282000031,614.9711613000254,[6.757513699994888],615.1270765000081,621.4157552999968,2,621.4158864000055,621.4159510000027,None,2,615.1328282000031,615.1328282000031,615.1328282000031,6.2799465999996755,None,,,,,,,,310,001,2026-03-30_19h15.26.813,exp_sofc,,2025.2.3,60.0959371464862,2026-03-30 19h15.28.089558 +0200,
,35,0,35,,,,,,,,,,,,,,,,,,,,,,None,None,,,,,,,,,,,,,35,0,35,0,621.554813499999,,,,,,,,,,,,,,,,,,,,,,,,,,,,,,,,,,,,,,,,,,,,,,clips/clip_weißt_01_nosub_1.mp4,audios/silence.mp3,visual,621.548847099999,621.9230917000095,622.1241276000219,622.1241276000219,622.12320606667,623.3772334000096,633.4271446000203,633.1405955000082,[6.033813399990322],633.2789674000232,633.2790604000038,None,633.2791336000082,633.2791814000229,None,,,,,,,,,,,,,,310,001,2026-03-30_19h15.26.813,exp_sofc,,2025.2.3,60.0959371464862,2026-03-30 19h15.28.089558 +0200,
,36,0,36,,,,,,,,,,,,,,,,,,,,,,None,None,,,,,,,,,,,,,36,0,36,0,633.4271446000203,,,,,,,,,,,,,,,,,,,,,,,,,,,,,,,,,,,,,,,,,,,,,,clips/clip_hund_20_sub_0.mp4,audios/silence.mp3,visual,633.4200956000132,633.7949362000218,633.9943016000034,633.9778472000035,633.9784853666827,635.2298835999973,645.7749351000239,645.5120540000207,[],645.655880300008,645.6559552000253,None,645.6560294000083,645.6560820000013,None,,,,,,,,,,,,,,310,001,2026-03-30_19h15.26.813,exp_sofc,,2025.2.3,60.0959371464862,2026-03-30 19h15.28.089558 +0200,
,37,0,37,,,,,,,,,,,,,,,,,,,,,,None,None,,,,,,,,,,,,,37,0,37,0,645.7749351000239,,,,,,,,,,,,,,,,,,,,,,,,,,,,,,,,,,,,,,,,,,,,,,clips/clip_wurst_04_nosub_2.mp4,audios/silence.mp3,visual,645.7678013000113,646.1581999000045,646.3603869000217,646.3603869000217,646.3584756666717,647.6101999000239,658.2733315000078,658.0100558999984,"[4.130399400019087, 7.026009399996838]",658.1460229000077,658.1461277000199,None,658.1461993000121,658.1462314000237,None,,,,,,,,,,,,,,310,001,2026-03-30_19h15.26.813,exp_sofc,,2025.2.3,60.0959371464862,2026-03-30 19h15.28.089558 +0200,
,38,0,38,,,,,,,,,,,,,,,,,,,,,,None,None,,,,,,,,,,,,,38,0,38,0,658.2733315000078,,,,,,,,,,,,,,,,,,,,,,,,,,,,,,,,,,,,,,,,,,,,,,clips/clip_holo_20_sub_1.mp4,audios/silence.mp3,visual,658.268317900016,658.6591669000045,658.8591948000249,658.8591948000249,658.8587183666862,660.1115281000093,668.5608515000204,668.289825600019,[1.6969694000144955],668.4150336000021,668.4151372000051,None,668.415227999998,668.4152835000132,None,,,,,,,,,,,,,,310,001,2026-03-30_19h15.26.813,exp_sofc,,2025.2.3,60.0959371464862,2026-03-30 19h15.28.089558 +0200,
,39,0,39,,,,,,,,,,,,,,,,,,,,,,None,None,,,,,,,,,,,,,39,0,39,0,668.5608515000204,,,,,,,,,,,,,,,,,,,,,,,,,,,,,,,,,,,,,,,,,,,,,,clips/clip_weißt_06_nosub_0.mp4,audios/silence.mp3,visual,668.5554540000157,668.9243548000231,669.1256287000142,669.1256287000142,669.1251592666706,670.3764114000078,679.7420858000114,679.4574327000009,[5.6187093000044115],679.5825762000168,679.5826546000026,None,679.5827374000219,679.5827849000052,None,,,,,,,,,,,,,,310,001,2026-03-30_19h15.26.813,exp_sofc,,2025.2.3,60.0959371464862,2026-03-30 19h15.28.089558 +0200,
,40,0,40,,,,,,,,,,,,,,,,,,,,,,None,None,,,,,,,,,,,,,40,0,40,0,679.7420858000114,,,,,,,,,,,,,,,,,,,,,,,,,,,,,,,,,,,,,,,,,,,,,,clips/clip_weißt_03_sub_0.mp4,audios/clip_weißt_03_sub_0.mp3,audiovisual,679.7378116000036,680.0938629000157,680.2983422999969,680.2983422999969,680.2946348666776,692.581868600013,692.581868600013,692.314377600007,[],692.4489524000091,692.4490065000136,None,692.4490730999969,692.44912200002,None,,,,,,,,,,,,,,310,001,2026-03-30_19h15.26.813,exp_sofc,,2025.2.3,60.0959371464862,2026-03-30 19h15.28.089558 +0200,
,41,0,41,,,,,,,,,,,,,,,,,,,,,,3,None,3.9648077999881934,None,,,,,,,,,,,41,0,41,0,692.581868600013,,,,,,,,,,,,,,,,,,,,,,,,,,,,,,,,,,,,,,,,,,,,,,clips/clip_holo_03_sub_1.mp4,audios/silence.mp3,visual,692.5775758000091,692.9636947000108,693.1667261999974,693.1667261999974,693.1656083666642,694.4157339000085,702.8590879000258,702.6960729999992,[7.678371000016341],702.8524259999976,706.8347262000025,3,706.8348593999981,706.834929100005,None,3,702.8590879000258,702.8590879000258,702.8590879000258,3.9648077999881934,None,,,,,,,,310,001,2026-03-30_19h15.26.813,exp_sofc,,2025.2.3,60.0959371464862,2026-03-30 19h15.28.089558 +0200,
,42,0,42,,,,,,,,,,,,,,,,,,,,,,None,None,,,,,,,,,,,,,42,0,42,0,707.013582500018,,,,,,,,,,,,,,,,,,,,,,,,,,,,,,,,,,,,,,,,,,,,,,clips/clip_hund_13_nosub_1.mp4,audios/clip_hund_13_nosub_1.mp3,audiovisual,707.0066076000221,707.3335443000251,707.534052300005,707.5518781999999,707.5507189666716,719.3185570000205,719.5932947000256,719.3189651000139,[6.185250999988057],719.4557912000164,719.4558846,None,719.4559425000043,719.4559807000041,None,,,,,,,,,,,,,,310,001,2026-03-30_19h15.26.813,exp_sofc,,2025.2.3,60.0959371464862,2026-03-30 19h15.28.089558 +0200,
,43,0,43,,,,,,,,,,,,,,,,,,,,,,None,None,,,,,,,,,,,,,43,0,43,0,719.5932947000256,,,,,,,,,,,,,,,,,,,,,,,,,,,,,,,,,,,,,,,,,,,,,,clips/clip_herz_02_sub_0.mp4,audios/silence.mp3,visual,719.5892852000252,719.9714273000136,720.1867404000077,720.1706814000208,720.169862266692,721.4227167000063,732.8321178000188,732.556009699998,[9.657208899996476],732.6998152000015,732.6999097000225,None,732.7000600000028,732.7001249000023,None,,,,,,,,,,,,,,310,001,2026-03-30_19h15.26.813,exp_sofc,,2025.2.3,60.0959371464862,2026-03-30 19h15.28.089558 +0200,
,44,0,44,,,,,,,,,,,,,,,,,,,,,,1,None,3.3980393999954686,None,,,,,,,,,,,44,0,44,0,732.8321178000188,,,,,,,,,,,,,,,,,,,,,,,,,,,,,,,,,,,,,,,,,,,,,,clips/clip_hund_30_nosub_0.mp4,audios/silence.mp3,visual,732.8266721999971,733.2080700000224,733.4082110000018,733.4082110000018,733.4081452666762,734.6594501000072,745.5708172000013,745.426229100005,[],745.565115800011,748.9742041999998,1,748.9743501000048,748.9744149000035,None,1,745.5708172000013,745.5708172000013,745.5708172000013,3.3980393999954686,None,,,,,,,,310,001,2026-03-30_19h15.26.813,exp_sofc,,2025.2.3,60.0959371464862,2026-03-30 19h15.28.089558 +0200,
,45,0,45,,,,,,,,,,,,,,,,,,,,,,None,None,,,,,,,,,,,,,45,0,45,0,749.1039832000097,,,,,,,,,,,,,,,,,,,,,,,,,,,,,,,,,,,,,,,,,,,,,,clips/clip_lied_10_nosub_1.mp4,audios/silence.mp3,visual,749.0976403000241,749.4737272000057,749.6811935000005,749.6811935000005,749.6744034666665,750.9264596000139,761.445681400015,761.1922170000034,[4.436350700008916],761.3241212000139,761.3241710000148,None,761.3242178000219,761.3242466000083,None,,,,,,,,,,,,,,310,001,2026-03-30_19h15.26.813,exp_sofc,,2025.2.3,60.0959371464862,2026-03-30 19h15.28.089558 +0200,
,46,0,46,,,,,,,,,,,,,,,,,,,,,,None,None,,,,,,,,,,,,,46,0,46,0,761.445681400015,,,,,,,,,,,,,,,,,,,,,,,,,,,,,,,,,,,,,,,,,,,,,,clips/clip_claude_07_nosub_0.mp4,audios/silence.mp3,visual,761.4391077000182,761.8356763000193,762.0365951000131,762.0365951000131,762.0352416666904,763.287659499998,772.3353989000025,772.0677460000152,[],772.2000635000004,772.2001614000183,None,772.2002534000203,772.2003064000164,None,,,,,,,,,,,,,,310,001,2026-03-30_19h15.26.813,exp_sofc,,2025.2.3,60.0959371464862,2026-03-30 19h15.28.089558 +0200,
,47,0,47,,,,,,,,,,,,,,,,,,,,,,2,None,2.685184300004039,None,,,,,,,,,,,47,0,47,0,772.3353989000025,,,,,,,,,,,,,,,,,,,,,,,,,,,,,,,,,,,,,,,,,,,,,,clips/clip_holo_02_sub_2.mp4,audios/silence.mp3,visual,772.329770100012,772.7019423000165,772.9119166000164,772.9119166000164,772.9028428666682,774.1543304000224,784.252994200011,784.1043689000071,"[4.424446299992269, 8.13220680001541]",784.2468553000072,786.9493380000058,2,786.9494273000164,786.949463099998,None,2,784.252994200011,784.252994200011,784.252994200011,2.685184300004039,None,,,,,,,,310,001,2026-03-30_19h15.26.813,exp_sofc,,2025.2.3,60.0959371464862,2026-03-30 19h15.28.089558 +0200,
,48,0,48,,,,,,,,,,,,,,,,,,,,,,None,None,,,,,,,,,,,,,48,0,48,0,787.1251034000015,,,,,,,,,,,,,,,,,,,,,,,,,,,,,,,,,,,,,,,,,,,,,,clips/clip_dampf_06_sub_2.mp4,audios/clip_dampf_06_sub_2.mp3,audiovisual,787.1171463000064,787.4508626000024,787.6689001000195,787.6689001000195,787.652333966664,796.6821416000021,796.9360150000139,796.6825588000065,[],796.8166599000106,796.8167443000129,None,796.8168158000044,796.8168676000205,None,,,,,,,,,,,,,,310,001,2026-03-30_19h15.26.813,exp_sofc,,2025.2.3,60.0959371464862,2026-03-30 19h15.28.089558 +0200,
,49,0,49,,,,,,,,,,,,,,,,,,,,,,None,None,,,,,,,,,,,,,49,0,49,0,796.9360150000139,,,,,,,,,,,,,,,,,,,,,,,,,,,,,,,,,,,,,,,,,,,,,,clips/clip_wurst_31_sub_1.mp4,audios/silence.mp3,visual,796.9320817000116,797.3243117000093,797.5306657000037,797.5306657000037,797.5233985666748,798.7754640000057,808.8029617000138,808.5411184999975,[],808.6625084000116,808.662584900012,None,808.6626773000171,808.662727500021,None,,,,,,,,,,,,,,310,001,2026-03-30_19h15.26.813,exp_sofc,,2025.2.3,60.0959371464862,2026-03-30 19h15.28.089558 +0200,
,50,0,50,,,,,,,,,,,,,,,,,,,,,,None,None,,,,,,,,,,,,,50,0,50,0,808.8029617000138,,,,,,,,,,,,,,,,,,,,,,,,,,,,,,,,,,,,,,,,,,,,,,clips/clip_herz_08_sub_0.mp4,audios/silence.mp3,visual,808.7975888000219,809.1721011000045,809.386825900001,809.386825900001,809.3715482666778,810.6231011000054,821.6861540000245,821.3904596000211,"[5.318559199979063, 10.130127599986736]",821.5118482000253,821.5119261000073,None,821.5120063000068,821.5120741999999,None,,,,,,,,,,,,,,310,001,2026-03-30_19h15.26.813,exp_sofc,,2025.2.3,60.0959371464862,2026-03-30 19h15.28.089558 +0200,
,51,0,51,,,,,,,,,,,,,,,,,,,,,,None,None,,,,,,,,,,,,,51,0,51,0,821.6861540000245,,,,,,,,,,,,,,,,,,,,,,,,,,,,,,,,,,,,,,,,,,,,,,clips/clip_hund_12_nosub_1.mp4,audios/clip_hund_12_nosub_1.mp3,audiovisual,821.6816137999995,822.0161990000051,822.2241943000117,822.2241943000117,822.2165597666792,833.7250102999969,833.7250102999969,833.4342542000231,[10.022258600016357],833.5774593000242,833.5775472000241,None,833.5776202999987,833.5776584999985,None,,,,,,,,,,,,,,310,001,2026-03-30_19h15.26.813,exp_sofc,,2025.2.3,60.0959371464862,2026-03-30 19h15.28.089558 +0200,
,52,0,52,,,,,,,,,,,,,,,,,,,,,,None,None,,,,,,,,,,,,,52,0,52,0,833.7250102999969,,,,,,,,,,,,,,,,,,,,,,,,,,,,,,,,,,,,,,,,,,,,,,clips/clip_claude_01_nosub_2.mp4,audios/clip_claude_01_nosub_2.mp3,audiovisual,833.7203829000064,834.0763153000153,834.2949693000119,834.2949693000119,834.2768864666907,845.5346394000226,845.5346394000226,845.2448185000103,"[7.13892319999286, 8.8392892999982]",845.3826089000213,845.3826677000034,None,845.3827241000254,845.382758599997,None,,,,,,,,,,,,,,310,001,2026-03-30_19h15.26.813,exp_sofc,,2025.2.3,60.0959371464862,2026-03-30 19h15.28.089558 +0200,
,53,0,53,,,,,,,,,,,,,,,,,,,,,,None,None,,,,,,,,,,,,,53,0,53,0,845.5346394000226,,,,,,,,,,,,,,,,,,,,,,,,,,,,,,,,,,,,,,,,,,,,,,clips/clip_weißt_27_nosub_1.mp4,audios/clip_weißt_27_nosub_1.mp3,audiovisual,845.5286986000137,845.8852530000149,846.0869921999983,846.0869921999983,846.0847744666719,856.4572862000205,856.4572862000205,856.169282900024,[7.933454299985897],856.3027615000028,856.3028334999981,None,856.3028988000005,856.3029498000105,None,,,,,,,,,,,,,,310,001,2026-03-30_19h15.26.813,exp_sofc,,2025.2.3,60.0959371464862,2026-03-30 19h15.28.089558 +0200,
,54,0,54,,,,,,,,,,,,,,,,,,,,,,4,None,5.522663999989163,None,,,,,,,,,,,54,0,54,0,856.4572862000205,,,,,,,,,,,,,,,,,,,,,,,,,,,,,,,,,,,,,,,,,,,,,,clips/clip_hund_23_nosub_1.mp4,audios/clip_hund_23_nosub_1.mp3,audiovisual,856.452577500022,856.8089770000079,857.0164312999987,857.0164312999987,857.0092069666755,867.9424249000149,868.0960347000218,867.9426732000138,[],868.0905616000236,873.6269900000188,4,873.6270827999979,873.6271187000093,None,4,868.0960347000218,868.0960347000218,868.0960347000218,5.522663999989163,None,,,,,,,,310,001,2026-03-30_19h15.26.813,exp_sofc,,2025.2.3,60.0959371464862,2026-03-30 19h15.28.089558 +0200,
,55,0,55,,,,,,,,,,,,,,,,,,,,,,None,None,,,,,,,,,,,,,55,0,55,0,873.8102305000066,,,,,,,,,,,,,,,,,,,,,,,,,,,,,,,,,,,,,,,,,,,,,,clips/clip_weißt_25_sub_1.mp4,audios/clip_weißt_25_sub_1.mp3,audiovisual,873.8030421000149,874.1296224000107,874.3326410000154,874.3326410000154,874.3294498666694,886.6096443000133,886.6096443000133,886.3472608000156,[5.156206099985866],886.4902385000023,886.4902856000117,None,886.4903272000083,886.4903548000148,None,,,,,,,,,,,,,,310,001,2026-03-30_19h15.26.813,exp_sofc,,2025.2.3,60.0959371464862,2026-03-30 19h15.28.089558 +0200,
,56,0,56,,,,,,,,,,,,,,,,,,,,,,None,None,,,,,,,,,,,,,56,0,56,0,886.6096443000133,,,,,,,,,,,,,,,,,,,,,,,,,,,,,,,,,,,,,,,,,,,,,,clips/clip_wurst_13_nosub_0.mp4,audios/silence.mp3,visual,886.6054265999992,886.9963079000008,887.1998082000064,887.1998082000064,887.1958552666804,888.4467146000243,897.0830500000156,896.8272290000168,[],896.942127700022,896.9422040000209,None,896.9423389000003,896.9424001000007,None,,,,,,,,,,,,,,310,001,2026-03-30_19h15.26.813,exp_sofc,,2025.2.3,60.0959371464862,2026-03-30 19h15.28.089558 +0200,
,57,0,57,,,,,,,,,,,,,,,,,,,,,,2,None,4.4097664000000805,None,,,,,,,,,,,57,0,57,0,897.0830500000156,,,,,,,,,,,,,,,,,,,,,,,,,,,,,,,,,,,,,,,,,,,,,,clips/clip_wurst_01_sub_0.mp4,audios/clip_wurst_01_sub_0.mp3,audiovisual,897.077837400022,897.453774100024,897.654004800017,897.654004800017,897.6537873666714,907.7531676000217,907.7531676000217,907.5900497000257,[],907.7478699000203,912.1759428000078,2,912.1760324000206,912.1760776000156,None,1,907.7531676000217,907.7531676000217,907.7531676000217,4.4097664000000805,None,,,,,,,,310,001,2026-03-30_19h15.26.813,exp_sofc,,2025.2.3,60.0959371464862,2026-03-30 19h15.28.089558 +0200,
,58,0,58,,,,,,,,,,,,,,,,,,,,,,None,None,,,,,,,,,,,,,58,0,58,0,912.328862000024,,,,,,,,,,,,,,,,,,,,,,,,,,,,,,,,,,,,,,,,,,,,,,clips/clip_weißt_13_sub_0.mp4,audios/silence.mp3,visual,912.3222383000248,912.6855088000011,912.8889633000072,912.8889633000072,912.885626766689,914.1383238999988,923.9978500000143,923.7192814000009,[],923.8622903000214,923.8623564000009,None,923.862420200021,923.8624758000078,None,,,,,,,,,,,,,,310,001,2026-03-30_19h15.26.813,exp_sofc,,2025.2.3,60.0959371464862,2026-03-30 19h15.28.089558 +0200,
,59,0,59,,,,,,,,,,,,,,,,,,,,,,None,space,,,22.977155700005824,None,,,,,,,,,59,0,59,0,923.9978500000143,,,,,,,,,,,,,,,,,,,,,,,,,,,,,,,,,,,,,,,,,,,,,,clips/clip_herz_10_sub_0.mp4,audios/silence.mp3,visual,923.9897841000056,924.3702491000004,924.5716216000146,924.5716216000146,924.5698177666675,925.8226204000239,934.7540494000132,934.602358300006,[0.12383319999207743],934.7389286000107,934.7391260000004,None,934.7392233000137,957.7472619000182,space,,,,,,,934.7540494000132,934.7540494000132,934.7540494000132,22.977155700005824,None,,,310,001,2026-03-30_19h15.26.813,exp_sofc,,2025.2.3,60.0959371464862,2026-03-30 19h15.28.089558 +0200,
,60,0,60,,,,,,,,,,,,,,,,,,,,,,None,None,,,,,,,,,,,,,60,0,60,0,957.9062990000239,,,,,,,,,,,,,,,,,,,,,,,,,,,,,,,,,,,,,,,,,,,,,,clips/clip_holo_01_nosub_1.mp4,audios/silence.mp3,visual,957.89991930002,958.2596071000153,958.4751221000042,958.460024400003,958.4581849666758,959.7103725000052,967.9375724999991,967.6557237000088,[4.458952000015415],967.7849469000066,967.7850389000087,None,967.7851252999972,967.7852073000104,None,,,,,,,,,,,,,,310,001,2026-03-30_19h15.26.813,exp_sofc,,2025.2.3,60.0959371464862,2026-03-30 19h15.28.089558 +0200,
,61,0,61,,,,,,,,,,,,,,,,,,,,,,None,None,,,,,,,,,,,,,61,0,61,0,967.9375724999991,,,,,,,,,,,,,,,,,,,,,,,,,,,,,,,,,,,,,,,,,,,,,,clips/clip_herz_11_nosub_0.mp4,audios/clip_herz_11_nosub_0.mp3,audiovisual,967.9310193000128,968.2911787000194,968.4924573000171,968.4924573000171,968.491294666692,978.0639085000148,978.0639085000148,977.7999440999993,[5.265508000011323],977.9187366999977,977.918794600002,None,977.9188580000191,977.9189068000123,None,,,,,,,,,,,,,,310,001,2026-03-30_19h15.26.813,exp_sofc,,2025.2.3,60.0959371464862,2026-03-30 19h15.28.089558 +0200,
,62,0,62,,,,,,,,,,,,,,,,,,,,,,2,None,8.233038000005763,None,,,,,,,,,,,62,0,62,0,978.0639085000148,,,,,,,,,,,,,,,,,,,,,,,,,,,,,,,,,,,,,,,,,,,,,,clips/clip_hund_05_sub_0.mp4,audios/clip_hund_05_sub_0.mp3,audiovisual,978.0589682999998,978.4231470000232,978.6255790000141,978.6255790000141,978.6226975666689,989.6421601000184,989.8103814000206,989.6426089000015,[4.152336500003003],989.8037842000194,998.0536047000205,2,998.0536971000256,998.0537389000237,None,2,989.8103814000206,989.8103814000206,989.8103814000206,8.233038000005763,None,,,,,,,,310,001,2026-03-30_19h15.26.813,exp_sofc,,2025.2.3,60.0959371464862,2026-03-30 19h15.28.089558 +0200,
,63,0,63,,,,,,,,,,,,,,,,,,,,,,None,None,,,,,,,,,,,,,63,0,63,0,998.2360247000179,,,,,,,,,,,,,,,,,,,,,,,,,,,,,,,,,,,,,,,,,,,,,,clips/clip_claude_05_sub_2.mp4,audios/clip_claude_05_sub_2.mp3,audiovisual,998.2290335000143,998.5553786000237,998.7578797000169,998.7578797000169,998.7566756666677,1010.3623757000023,1010.3623757000023,1010.0688194000104,[4.8042147000087425],1010.191407300008,1010.1914615000132,None,1010.1915096000012,1010.191538300016,None,,,,,,,,,,,,,,310,001,2026-03-30_19h15.26.813,exp_sofc,,2025.2.3,60.0959371464862,2026-03-30 19h15.28.089558 +0200,
,64,0,64,,,,,,,,,,,,,,,,,,,,,,4,None,3.0694844000099692,None,,,,,,,,,,,64,0,64,0,1010.3623757000023,,,,,,,,,,,,,,,,,,,,,,,,,,,,,,,,,,,,,,,,,,,,,,clips/clip_claude_04_nosub_2.mp4,audios/clip_claude_04_nosub_2.mp3,audiovisual,1010.3577528000169,1010.6991720000224,1010.8993905000098,1010.8993905000098,1010.8993735666775,1019.9288703000057,1020.0729749000166,1019.9291593000235,[8.58322520001093],1020.0666760000167,1023.1594285000174,4,1023.1595178999996,1023.1595519999973,None,4,1020.0729749000166,1020.0729749000166,1020.0729749000166,3.0694844000099692,None,,,,,,,,310,001,2026-03-30_19h15.26.813,exp_sofc,,2025.2.3,60.0959371464862,2026-03-30 19h15.28.089558 +0200,
,65,0,65,,,,,,,,,,,,,,,,,,,,,,None,None,,,,,,,,,,,,,65,0,65,0,1023.3326605000184,,,,,,,,,,,,,,,,,,,,,,,,,,,,,,,,,,,,,,,,,,,,,,clips/clip_herz_07_sub_2.mp4,audios/clip_herz_07_sub_2.mp3,audiovisual,1023.3262764000101,1023.6604389999993,1023.86249520001,1023.86249520001,1023.8606677666869,1035.8786888000031,1036.182335999998,1035.8790278000233,"[4.247750200011069, 10.809373600000981]",1035.9987096000114,1035.9987975000113,None,1035.9988716000225,1035.9989179999975,None,,,,,,,,,,,,,,310,001,2026-03-30_19h15.26.813,exp_sofc,,2025.2.3,60.0959371464862,2026-03-30 19h15.28.089558 +0200,
,66,0,66,,,,,,,,,,,,,,,,,,,,,,None,None,,,,,,,,,,,,,66,0,66,0,1036.182335999998,,,,,,,,,,,,,,,,,,,,,,,,,,,,,,,,,,,,,,,,,,,,,,clips/clip_hund_03_nosub_1.mp4,audios/clip_hund_03_nosub_1.mp3,audiovisual,1036.1758085000038,1036.505023100006,1036.707942500012,1036.707942500012,1036.7061877666895,1048.8819946000003,1048.8819946000003,1048.614583800023,[6.763715000008233],1048.738349500025,1048.7384611000016,None,1048.738544599997,1048.738594800001,None,,,,,,,,,,,,,,310,001,2026-03-30_19h15.26.813,exp_sofc,,2025.2.3,60.0959371464862,2026-03-30 19h15.28.089558 +0200,
,67,0,67,,,,,,,,,,,,,,,,,,,,,,None,None,,,,,,,,,,,,,67,0,67,0,1048.8819946000003,,,,,,,,,,,,,,,,,,,,,,,,,,,,,,,,,,,,,,,,,,,,,,clips/clip_claude_26_nosub_0.mp4,audios/silence.mp3,visual,1048.8772047000239,1049.2421594000189,1049.4424719000235,1049.4424719000235,1049.4426762666883,1050.6933182000066,1060.6518803000217,1060.3759286999993,[],1060.527269000013,1060.5273579000204,None,1060.5274365000078,1060.5274908000138,None,,,,,,,,,,,,,,310,001,2026-03-30_19h15.26.813,exp_sofc,,2025.2.3,60.0959371464862,2026-03-30 19h15.28.089558 +0200,
,68,0,68,,,,,,,,,,,,,,,,,,,,,,None,None,,,,,,,,,,,,,68,0,68,0,1060.6518803000217,,,,,,,,,,,,,,,,,,,,,,,,,,,,,,,,,,,,,,,,,,,,,,clips/clip_lied_04_nosub_0.mp4,audios/silence.mp3,visual,1060.6467899999989,1061.0264928000106,1061.2350990000123,1061.2350990000123,1061.2265530666666,1062.4786047000089,1072.4922336000018,1072.212357500015,[],1072.3458411000029,1072.3459574000153,None,1072.3460366000072,1072.3460693000234,None,,,,,,,,,,,,,,310,001,2026-03-30_19h15.26.813,exp_sofc,,2025.2.3,60.0959371464862,2026-03-30 19h15.28.089558 +0200,
,69,0,69,,,,,,,,,,,,,,,,,,,,,,None,None,,,,,,,,,,,,,69,0,69,0,1072.4922336000018,,,,,,,,,,,,,,,,,,,,,,,,,,,,,,,,,,,,,,,,,,,,,,clips/clip_weißt_23_nosub_1.mp4,audios/silence.mp3,visual,1072.4873952000053,1072.8458479999972,1073.058073400025,1073.058073400025,1073.046244966685,1074.2978979000181,1084.7481741000083,1084.462878100021,[8.651011200010544],1084.6126766000234,1084.6127432000067,None,1084.6128113000013,1084.612859100016,None,,,,,,,,,,,,,,310,001,2026-03-30_19h15.26.813,exp_sofc,,2025.2.3,60.0959371464862,2026-03-30 19h15.28.089558 +0200,
,70,0,70,,,,,,,,,,,,,,,,,,,,,,None,None,,,,,,,,,,,,,70,0,70,0,1084.7481741000083,,,,,,,,,,,,,,,,,,,,,,,,,,,,,,,,,,,,,,,,,,,,,,clips/clip_claude_22_nosub_2.mp4,audios/clip_claude_22_nosub_2.mp3,audiovisual,1084.7439029000234,1085.1182723000238,1085.3336667999974,1085.3277772000001,1085.3167753666678,1096.3328844000062,1096.3328844000062,1096.0661118999997,[8.032247800001642],1096.1904410000134,1096.1905111000233,None,1096.1906055000145,1096.1906593000167,None,,,,,,,,,,,,,,310,001,2026-03-30_19h15.26.813,exp_sofc,,2025.2.3,60.0959371464862,2026-03-30 19h15.28.089558 +0200,
,71,0,71,,,,,,,,,,,,,,,,,,,,,,None,None,,,,,,,,,,,,,71,0,71,0,1096.3328844000062,,,,,,,,,,,,,,,,,,,,,,,,,,,,,,,,,,,,,,,,,,,,,,clips/clip_wurst_30_sub_1.mp4,audios/clip_wurst_30_sub_1.mp3,audiovisual,1096.3287396000233,1096.7022529000242,1096.9187479000248,1096.9187479000248,1096.90183286669,1106.9179585000093,1107.2027825000114,1106.9184810000006,[],1107.0500210000027,1107.050176800025,None,1107.0502603000205,1107.0503128000128,None,,,,,,,,,,,,,,310,001,2026-03-30_19h15.26.813,exp_sofc,,2025.2.3,60.0959371464862,2026-03-30 19h15.28.089558 +0200,
,72,0,72,,,,,,,,,,,,,,,,,,,,,,4,None,3.5076985000050627,None,,,,,,,,,,,72,0,72,0,1107.2027825000114,,,,,,,,,,,,,,,,,,,,,,,,,,,,,,,,,,,,,,,,,,,,,,clips/clip_lied_16_sub_2.mp4,audios/clip_lied_16_sub_2.mp3,audiovisual,1107.197608300019,1107.5544593000086,1107.7599780000164,1107.7599780000164,1107.7556743666685,,1118.5161172000226,1118.3611984000017,[6.748585900000762],1118.5094581000158,1122.039929200022,4,1122.0400161000143,1122.0400504000136,None,4,1118.5161172000226,1118.5161172000226,1118.5161172000226,3.5076985000050627,None,,,,,,,,310,001,2026-03-30_19h15.26.813,exp_sofc,,2025.2.3,60.0959371464862,2026-03-30 19h15.28.089558 +0200,
,73,0,73,,,,,,,,,,,,,,,,,,,,,,None,None,,,,,,,,,,,,,73,0,73,0,1122.196096700005,,,,,,,,,,,,,,,,,,,,,,,,,,,,,,,,,,,,,,,,,,,,,,clips/clip_dampf_04_nosub_1.mp4,audios/silence.mp3,visual,1122.1907502000104,1122.5497732000076,1122.7562640999968,1122.7562640999968,1122.7495563666782,1124.000679400022,1132.627825100004,1132.3802559000032,[4.924941900011618],1132.5170685000194,1132.5171383999987,None,1132.5172056000156,1132.517251900019,None,,,,,,,,,,,,,,310,001,2026-03-30_19h15.26.813,exp_sofc,,2025.2.3,60.0959371464862,2026-03-30 19h15.28.089558 +0200,
,74,0,74,,,,,,,,,,,,,,,,,,,,,,None,None,,,,,,,,,,,,,74,0,74,0,1132.627825100004,,,,,,,,,,,,,,,,,,,,,,,,,,,,,,,,,,,,,,,,,,,,,,clips/clip_wurst_08_nosub_1.mp4,audios/silence.mp3,visual,1132.6241261000105,1133.0237000000197,1133.2349250999978,1133.2349250999978,1133.2249434666921,1134.4751029000035,1142.0491329000215,1141.753717500018,[5.428182599978754],1141.8830540000054,1141.8832789000007,None,1141.8833800000139,1141.8834197999968,None,,,,,,,,,,,,,,310,001,2026-03-30_19h15.26.813,exp_sofc,,2025.2.3,60.0959371464862,2026-03-30 19h15.28.089558 +0200,
,75,0,75,,,,,,,,,,,,,,,,,,,,,,4,None,5.839648399996804,None,,,,,,,,,,,75,0,75,0,1142.0491329000215,,,,,,,,,,,,,,,,,,,,,,,,,,,,,,,,,,,,,,,,,,,,,,clips/clip_wurst_21_nosub_0.mp4,audios/clip_wurst_21_nosub_0.mp3,audiovisual,1142.0418646000035,1142.3967146000068,1142.5977016999968,1142.5977016999968,1142.5980210666642,1153.1291353999986,1153.2746401000186,1153.1294984999986,[],1153.269539800007,1159.1312066000246,4,1159.1313046000141,1159.1313443000254,None,4,1153.2746401000186,1153.2746401000186,1153.2746401000186,5.839648399996804,None,,,,,,,,310,001,2026-03-30_19h15.26.813,exp_sofc,,2025.2.3,60.0959371464862,2026-03-30 19h15.28.089558 +0200,
,76,0,76,,,,,,,,,,,,,,,,,,,,,,None,None,,,,,,,,,,,,,76,0,76,0,1159.26810690001,,,,,,,,,,,,,,,,,,,,,,,,,,,,,,,,,,,,,,,,,,,,,,clips/clip_hund_11_nosub_1.mp4,audios/silence.mp3,visual,1159.2627735999995,1159.636878600024,1159.8381835000182,1159.8381835000182,1159.836911866678,1161.0886251000047,1169.8912732000172,1169.5702459000167,[6.298286999983247],1169.7190295000037,1169.7190897000255,None,1169.7191432000254,1169.719172800018,None,,,,,,,,,,,,,,310,001,2026-03-30_19h15.26.813,exp_sofc,,2025.2.3,60.0959371464862,2026-03-30 19h15.28.089558 +0200,
,77,0,77,,,,,,,,,,,,,,,,,,,,,,None,None,,,,,,,,,,,,,77,0,77,0,1169.8912732000172,,,,,,,,,,,,,,,,,,,,,,,,,,,,,,,,,,,,,,,,,,,,,,clips/clip_lied_09_nosub_1.mp4,audios/clip_lied_09_nosub_1.mp3,audiovisual,1169.8855229000037,1170.2200468000083,1170.4218528000056,1170.4218528000056,1170.420616966676,1180.8527766000188,1181.1649253000214,1180.8530810000084,[],1180.989649199997,1180.9897075000044,None,1180.9897627000173,1180.9897912000015,None,,,,,,,,,,,,,,310,001,2026-03-30_19h15.26.813,exp_sofc,,2025.2.3,60.0959371464862,2026-03-30 19h15.28.089558 +0200,
,78,0,78,,,,,,,,,,,,,,,,,,,,,,None,None,,,,,,,,,,,,,78,0,78,0,1181.1649253000214,,,,,,,,,,,,,,,,,,,,,,,,,,,,,,,,,,,,,,,,,,,,,,clips/clip_lied_14_sub_0.mp4,audios/clip_lied_14_sub_0.mp3,audiovisual,1181.1574241000053,1181.500270300021,1181.7003147000214,1181.7003147000214,1181.7001064666877,1191.6977850999974,1191.6977850999974,1191.406785900006,[],1191.5322637000063,1191.5323965999996,None,1191.5325056000147,1191.5325735000079,None,,,,,,,,,,,,,,310,001,2026-03-30_19h15.26.813,exp_sofc,,2025.2.3,60.0959371464862,2026-03-30 19h15.28.089558 +0200,
,79,0,79,,,,,,,,,,,,,,,,,,,,,,None,None,,,,,,,,,,,,,79,0,79,0,1191.6977850999974,,,,,,,,,,,,,,,,,,,,,,,,,,,,,,,,,,,,,,,,,,,,,,clips/clip_herz_06_nosub_2.mp4,audios/clip_herz_06_nosub_2.mp3,audiovisual,1191.6923077000247,1192.0402099000057,1192.2421029000252,1192.2421029000252,1192.2412849666764,1203.1383482000092,1203.1383482000092,1202.8248786000186,"[5.47736360001727, 8.333338500000536]",1202.9653170000238,1202.9654120000196,None,1202.9654900000023,1202.9655300000159,None,,,,,,,,,,,,,,310,001,2026-03-30_19h15.26.813,exp_sofc,,2025.2.3,60.0959371464862,2026-03-30 19h15.28.089558 +0200,
,80,0,80,,,,,,,,,,,,,,,,,,,,,,None,None,,,,,,,,,,,,,80,0,80,0,1203.1383482000092,,,,,,,,,,,,,,,,,,,,,,,,,,,,,,,,,,,,,,,,,,,,,,clips/clip_claude_10_sub_0.mp4,audios/clip_claude_10_sub_0.mp3,audiovisual,1203.133278399997,1203.4732569000043,1203.6859752000018,1203.6859752000018,1203.674142566688,1214.9088551000168,1215.1823061000032,1214.9091908000119,[],1215.042918799998,1215.0429865000187,None,1215.0430562999973,1215.043115700013,None,,,,,,,,,,,,,,310,001,2026-03-30_19h15.26.813,exp_sofc,,2025.2.3,60.0959371464862,2026-03-30 19h15.28.089558 +0200,
,81,0,81,,,,,,,,,,,,,,,,,,,,,,None,None,,,,,,,,,,,,,81,0,81,0,1215.1823061000032,,,,,,,,,,,,,,,,,,,,,,,,,,,,,,,,,,,,,,,,,,,,,,clips/clip_lied_15_nosub_2.mp4,audios/clip_lied_15_nosub_2.mp3,audiovisual,1215.1777890000085,1215.5419938999985,1215.7435584000195,1215.7435584000195,1215.7428339666842,,1223.3811551000108,1223.0706191000063,"[3.3810328999825288, 7.0751943999785]",1223.2288387000153,1223.2288852000202,None,1223.2289287000021,1223.228964000009,None,,,,,,,,,,,,,,310,001,2026-03-30_19h15.26.813,exp_sofc,,2025.2.3,60.0959371464862,2026-03-30 19h15.28.089558 +0200,
,82,0,82,,,,,,,,,,,,,,,,,,,,,,4,None,9.381690100010019,None,,,,,,,,,,,82,0,82,0,1223.3811551000108,,,,,,,,,,,,,,,,,,,,,,,,,,,,,,,,,,,,,,,,,,,,,,clips/clip_holo_19_nosub_1.mp4,audios/clip_holo_19_nosub_1.mp3,audiovisual,1223.3746124000172,1223.731935800024,1223.9378168999974,1223.9378168999974,1223.9325049666843,1233.9474053000158,1234.0901604000246,1233.9477325000043,[6.458525100024417],1234.0847987000016,1243.4881482000055,4,1243.4882388999977,1243.488285600004,None,4,1234.0901604000246,1234.0901604000246,1234.0901604000246,9.381690100010019,None,,,,,,,,310,001,2026-03-30_19h15.26.813,exp_sofc,,2025.2.3,60.0959371464862,2026-03-30 19h15.28.089558 +0200,
,83,0,83,,,,,,,,,,,,,,,,,,,,,,None,None,,,,,,,,,,,,,83,0,83,0,1243.668786299997,,,,,,,,,,,,,,,,,,,,,,,,,,,,,,,,,,,,,,,,,,,,,,clips/clip_herz_14_nosub_0.mp4,audios/clip_herz_14_nosub_0.mp3,audiovisual,1243.6620470000198,1243.9891239000135,1244.1936163000064,1244.1936163000064,1244.1887750666685,1254.7214908000024,1255.0087512000173,1254.7217485000147,[],1254.8726770000067,1254.872740300023,None,1254.8727908,1254.8728189000103,None,,,,,,,,,,,,,,310,001,2026-03-30_19h15.26.813,exp_sofc,,2025.2.3,60.0959371464862,2026-03-30 19h15.28.089558 +0200,
,84,0,84,,,,,,,,,,,,,,,,,,,,,,None,None,,,,,,,,,,,,,84,0,84,0,1255.0087512000173,,,,,,,,,,,,,,,,,,,,,,,,,,,,,,,,,,,,,,,,,,,,,,clips/clip_weißt_30_sub_2.mp4,audios/silence.mp3,visual,1255.0037910000246,1255.3775394000113,1255.579705800017,1255.579705800017,1255.5773988666808,1256.8283583000011,1267.8887678000028,1267.5972115000186,"[3.1930107999942265, 12.16985810000915]",1267.7348763000045,1267.7350017999997,None,1267.735090000002,1267.7351630000048,None,,,,,,,,,,,,,,310,001,2026-03-30_19h15.26.813,exp_sofc,,2025.2.3,60.0959371464862,2026-03-30 19h15.28.089558 +0200,
,85,0,85,,,,,,,,,,,,,,,,,,,,,,None,None,,,,,,,,,,,,,85,0,85,0,1267.8887678000028,,,,,,,,,,,,,,,,,,,,,,,,,,,,,,,,,,,,,,,,,,,,,,clips/clip_holo_11_sub_2.mp4,audios/silence.mp3,visual,1267.8814665000245,1268.2401571000228,1268.461821600009,1268.453075700003,1268.4389110666855,1269.6914091000217,1278.3583345000225,1278.1004622000037,"[5.712142099975608, 9.29061929997988]",1278.2181394000072,1278.2182144000253,None,1278.2183209000214,1278.2183804000088,None,,,,,,,,,,,,,,310,001,2026-03-30_19h15.26.813,exp_sofc,,2025.2.3,60.0959371464862,2026-03-30 19h15.28.089558 +0200,
,86,0,86,,,,,,,,,,,,,,,,,,,,,,None,None,,,,,,,,,,,,,86,0,86,0,1278.3583345000225,,,,,,,,,,,,,,,,,,,,,,,,,,,,,,,,,,,,,,,,,,,,,,clips/clip_hund_15_sub_1.mp4,audios/clip_hund_15_sub_1.mp3,audiovisual,1278.3526029000059,1278.7285323000106,1278.9441028000147,1278.9286449000065,1278.9273631666767,1289.3934108000249,1289.660732600023,1289.3936631000252,[],1289.5148489999992,1289.5149198000145,None,1289.5149904999998,1289.5150335000071,None,,,,,,,,,,,,,,310,001,2026-03-30_19h15.26.813,exp_sofc,,2025.2.3,60.0959371464862,2026-03-30 19h15.28.089558 +0200,
,87,0,87,,,,,,,,,,,,,,,,,,,,,,None,None,,,,,,,,,,,,,87,0,87,0,1289.660732600023,,,,,,,,,,,,,,,,,,,,,,,,,,,,,,,,,,,,,,,,,,,,,,clips/clip_claude_13_nosub_0.mp4,audios/clip_claude_13_nosub_0.mp3,audiovisual,1289.6566541000211,1290.028330800007,1290.2301603000087,1290.2301603000087,1290.2284017666864,1299.4609213000222,1299.7175921000016,1299.4614870000223,[],1299.6000133000198,1299.6000792999985,None,1299.6001449000032,1299.6001916000096,None,,,,,,,,,,,,,,310,001,2026-03-30_19h15.26.813,exp_sofc,,2025.2.3,60.0959371464862,2026-03-30 19h15.28.089558 +0200,
,88,0,88,,,,,,,,,,,,,,,,,,,,,,None,None,,,,,,,,,,,,,88,0,88,0,1299.7175921000016,,,,,,,,,,,,,,,,,,,,,,,,,,,,,,,,,,,,,,,,,,,,,,clips/clip_hund_24_sub_1.mp4,audios/silence.mp3,visual,1299.7138823000132,1300.1027661999979,1300.316729400016,1300.316729400016,1300.302900266692,1301.5548253000015,1312.6373802000016,1312.3218646000023,[8.221744500013301],1312.4553098000179,1312.4554010000138,None,1312.455499100004,1312.4555465000158,None,,,,,,,,,,,,,,310,001,2026-03-30_19h15.26.813,exp_sofc,,2025.2.3,60.0959371464862,2026-03-30 19h15.28.089558 +0200,
,89,0,89,,,,,,,,,,,,,,,,,,,,,,None,None,,,,,,,,,,,,,89,0,89,0,1312.6373802000016,,,,,,,,,,,,,,,,,,,,,,,,,,,,,,,,,,,,,,,,,,,,,,clips/clip_claude_17_sub_1.mp4,audios/clip_claude_17_sub_1.mp3,audiovisual,1312.6318332000228,1312.9559484000201,1313.159039500024,1313.159039500024,1313.1561439666878,1324.6789057000133,1324.970763899997,1324.6792806000158,[],1324.8091524000047,1324.8092192000186,None,1324.8092798000143,1324.8093195000256,None,,,,,,,,,,,,,,310,001,2026-03-30_19h15.26.813,exp_sofc,,2025.2.3,60.0959371464862,2026-03-30 19h15.28.089558 +0200,
,90,0,90,,,,,,,,,,,,,,,,,,,,,,None,None,,,,,,,,,,,,,90,0,90,0,1324.970763899997,,,,,,,,,,,,,,,,,,,,,,,,,,,,,,,,,,,,,,,,,,,,,,clips/clip_holo_12_sub_1.mp4,audios/clip_holo_12_sub_1.mp3,audiovisual,1324.9638373000198,1325.3169020000205,1325.5174557999999,1325.5174557999999,1325.5167519666759,1335.5318344999978,1335.7893377,1335.5320766000077,[8.478605100011919],1335.652438500023,1335.6525072000222,None,1335.6526294000214,1335.6526979000191,None,,,,,,,,,,,,,,310,001,2026-03-30_19h15.26.813,exp_sofc,,2025.2.3,60.0959371464862,2026-03-30 19h15.28.089558 +0200,
,91,0,91,,,,,,,,,,,,,,,,,,,,,,None,None,,,,,,,,,,,,,91,0,91,0,1335.7893377,,,,,,,,,,,,,,,,,,,,,,,,,,,,,,,,,,,,,,,,,,,,,,clips/clip_wurst_14_sub_1.mp4,audios/clip_wurst_14_sub_1.mp3,audiovisual,1335.7845781000215,1336.1590408000047,1336.3598414000007,1336.3598414000007,1336.358703066686,1346.3743794000184,1346.660052000021,1346.3746211000253,[8.085002699983306],1346.4999566000188,1346.5000260000234,None,1346.500122700003,1346.500172800006,None,,,,,,,,,,,,,,310,001,2026-03-30_19h15.26.813,exp_sofc,,2025.2.3,60.0959371464862,2026-03-30 19h15.28.089558 +0200,
,92,0,92,,,,,,,,,,,,,,,,,,,,,,None,None,,,,,,,,,,,,,92,0,92,0,1346.660052000021,,,,,,,,,,,,,,,,,,,,,,,,,,,,,,,,,,,,,,,,,,,,,,clips/clip_hund_07_nosub_1.mp4,audios/clip_hund_07_nosub_1.mp3,audiovisual,1346.6553171999985,1347.012459999998,1347.2123014000244,1347.2123014000244,1347.212495466669,1359.0950453999976,1359.0950453999976,1358.8313226000173,[6.5428384999977425],1358.9680424000253,1358.9681330000167,None,1358.968191699998,1358.9682295000239,None,,,,,,,,,,,,,,310,001,2026-03-30_19h15.26.813,exp_sofc,,2025.2.3,60.0959371464862,2026-03-30 19h15.28.089558 +0200,
,93,0,93,,,,,,,,,,,,,,,,,,,,,,None,None,,,,,,,,,,,,,93,0,93,0,1359.0950453999976,,,,,,,,,,,,,,,,,,,,,,,,,,,,,,,,,,,,,,,,,,,,,,clips/clip_weißt_26_nosub_1.mp4,audios/silence.mp3,visual,1359.090161,1359.4801139000047,1359.6830495000177,1359.6830495000177,1359.6816760666882,1360.9316515000246,1370.1881565000222,1369.913076900004,[7.305083099985495],1370.037052300002,1370.0371068000095,None,1370.0371598000056,1370.0371910000104,None,,,,,,,,,,,,,,310,001,2026-03-30_19h15.26.813,exp_sofc,,2025.2.3,60.0959371464862,2026-03-30 19h15.28.089558 +0200,
,94,0,94,,,,,,,,,,,,,,,,,,,,,,None,None,,,,,,,,,,,,,94,0,94,0,1370.1881565000222,,,,,,,,,,,,,,,,,,,,,,,,,,,,,,,,,,,,,,,,,,,,,,clips/clip_wurst_18_nosub_0.mp4,audios/clip_wurst_18_nosub_0.mp3,audiovisual,1370.1827898000192,1370.5480228000088,1370.750134300004,1370.750134300004,1370.7506982666712,1380.7809558000008,1380.9931985000148,1380.7813986000256,[],1380.8922300999984,1380.8923072000034,None,1380.8923775000148,1380.892409400025,None,,,,,,,,,,,,,,310,001,2026-03-30_19h15.26.813,exp_sofc,,2025.2.3,60.0959371464862,2026-03-30 19h15.28.089558 +0200,
,95,0,95,,,,,,,,,,,,,,,,,,,,,,None,None,,,,,,,,,,,,,95,0,95,0,1380.9931985000148,,,,,,,,,,,,,,,,,,,,,,,,,,,,,,,,,,,,,,,,,,,,,,clips/clip_holo_09_nosub_2.mp4,audios/silence.mp3,visual,1380.9890634000185,1381.3950113000174,1381.598224700021,1381.598224700021,1381.595431466678,1382.8476153000083,1393.3078551000217,1393.0479366000218,[],1393.1787853999995,1393.1788616999984,None,1393.1789356000081,1393.178989100008,None,,,,,,,,,,,,,,310,001,2026-03-30_19h15.26.813,exp_sofc,,2025.2.3,60.0959371464862,2026-03-30 19h15.28.089558 +0200,
,96,0,96,,,,,,,,,,,,,,,,,,,,,,None,None,,,,,,,,,,,,,96,0,96,0,1393.3078551000217,,,,,,,,,,,,,,,,,,,,,,,,,,,,,,,,,,,,,,,,,,,,,,clips/clip_dampf_01_sub_0.mp4,audios/silence.mp3,visual,1393.3022000000055,1393.6925001000054,1393.8938842000207,1393.8938842000207,1393.8916224666793,1395.1433207000082,1403.625600200001,1403.3230749000213,[],1403.4584111000004,1403.4585274000128,None,1403.4586738000216,1403.4587411000102,None,,,,,,,,,,,,,,310,001,2026-03-30_19h15.26.813,exp_sofc,,2025.2.3,60.0959371464862,2026-03-30 19h15.28.089558 +0200,
,97,0,97,,,,,,,,,,,,,,,,,,,,,,None,None,,,,,,,,,,,,,97,0,97,0,1403.625600200001,,,,,,,,,,,,,,,,,,,,,,,,,,,,,,,,,,,,,,,,,,,,,,clips/clip_weißt_28_nosub_1.mp4,audios/clip_weißt_28_nosub_1.mp3,audiovisual,1403.6186089999974,1403.9656348999997,1404.1762617000204,1404.1762617000204,1404.1660257666701,1414.2484584000194,1414.5315258000046,1414.2487683000218,[6.817226300016046],1414.3729304000153,1414.3730705000053,None,1414.3732292000204,1414.373300700012,None,,,,,,,,,,,,,,310,001,2026-03-30_19h15.26.813,exp_sofc,,2025.2.3,60.0959371464862,2026-03-30 19h15.28.089558 +0200,
,98,0,98,,,,,,,,,,,,,,,,,,,,,,None,None,,,,,,,,,,,,,98,0,98,0,1414.5315258000046,,,,,,,,,,,,,,,,,,,,,,,,,,,,,,,,,,,,,,,,,,,,,,clips/clip_holo_28_sub_0.mp4,audios/clip_holo_28_sub_0.mp3,audiovisual,1414.5262587000034,1414.8827958000184,1415.0856108000153,1415.0856108000153,1415.082721966672,1423.6130981000024,1423.8946965000068,1423.6134359000134,[],1423.7502059000253,1423.7502895000216,None,1423.7503703999973,1423.750418600015,None,,,,,,,,,,,,,,310,001,2026-03-30_19h15.26.813,exp_sofc,,2025.2.3,60.0959371464862,2026-03-30 19h15.28.089558 +0200,
,99,0,99,,,,,,,,,,,,,,,,,,,,,,None,None,,,,,,,,,,,,,99,0,99,0,1423.8946965000068,,,,,,,,,,,,,,,,,,,,,,,,,,,,,,,,,,,,,,,,,,,,,,clips/clip_herz_09_sub_0.mp4,audios/clip_herz_09_sub_0.mp3,audiovisual,1423.889926200005,1424.2637864999997,1424.4670930000138,1424.4670930000138,1424.4646473666692,1436.2662599000032,1436.2662599000032,1435.982624700002,[],1436.1369435000233,1436.1370385000191,None,1436.1371219000139,1436.1371761000191,None,,,,,,,,,,,,,,310,001,2026-03-30_19h15.26.813,exp_sofc,,2025.2.3,60.0959371464862,2026-03-30 19h15.28.089558 +0200,
,100,0,100,,,,,,,,,,,,,,,,,,,,,,1,None,2.6937352000095416,None,,,,,,,,,,,100,0,100,0,1436.2662599000032,,,,,,,,,,,,,,,,,,,,,,,,,,,,,,,,,,,,,,,,,,,,,,clips/clip_weißt_16_sub_0.mp4,audios/silence.mp3,visual,1436.2625010000193,1436.6527669000207,1436.8562108000042,1436.8562108000042,1436.8526829666846,1438.1045676000067,1447.5350737000117,1447.3854607000249,[],1447.5284417000075,1450.2312435000204,1,1450.2313320000248,1450.2313653000165,None,1,1447.5350737000117,1447.5350737000117,1447.5350737000117,2.6937352000095416,None,,,,,,,,310,001,2026-03-30_19h15.26.813,exp_sofc,,2025.2.3,60.0959371464862,2026-03-30 19h15.28.089558 +0200,
,101,0,101,,,,,,,,,,,,,,,,,,,,,,None,None,,,,,,,,,,,,,101,0,101,0,1450.4087103000202,,,,,,,,,,,,,,,,,,,,,,,,,,,,,,,,,,,,,,,,,,,,,,clips/clip_hund_21_nosub_1.mp4,audios/clip_hund_21_nosub_1.mp3,audiovisual,1450.4016020999989,1450.732664500014,1450.936501600023,1450.936501600023,1450.9333832666782,1460.964429100015,1461.2500509000092,1460.9647107000055,[6.979663100006292],1461.0830582000199,1461.0831159000227,None,1461.083166299999,1461.0831950000138,None,,,,,,,,,,,,,,310,001,2026-03-30_19h15.26.813,exp_sofc,,2025.2.3,60.0959371464862,2026-03-30 19h15.28.089558 +0200,
,102,0,102,,,,,,,,,,,,,,,,,,,,,,None,None,,,,,,,,,,,,,102,0,102,0,1461.2500509000092,,,,,,,,,,,,,,,,,,,,,,,,,,,,,,,,,,,,,,,,,,,,,,clips/clip_weißt_07_sub_1.mp4,audios/clip_weißt_07_sub_1.mp3,audiovisual,1461.243549900013,1461.5859182999993,1461.8064000000013,1461.793061400007,1461.7847566666644,1471.5166529999988,1471.7833118000126,1471.5172105000238,[6.0299304999934975],1471.655038900004,1471.6550999000028,None,1471.6551585000125,1471.6551919000049,None,,,,,,,,,,,,,,310,001,2026-03-30_19h15.26.813,exp_sofc,,2025.2.3,60.0959371464862,2026-03-30 19h15.28.089558 +0200,
,103,0,103,,,,,,,,,,,,,,,,,,,,,,None,None,,,,,,,,,,,,,103,0,103,0,1471.7833118000126,,,,,,,,,,,,,,,,,,,,,,,,,,,,,,,,,,,,,,,,,,,,,,clips/clip_wurst_24_sub_1.mp4,audios/silence.mp3,visual,1471.7774912000168,1472.1685022000165,1472.3703024999995,1472.3703024999995,1472.3682973666912,1473.619820699998,1483.9494077000127,1483.6859002000128,[],1483.8283836000192,1483.8284765999997,None,1483.8285907000245,1483.8286449000007,None,,,,,,,,,,,,,,310,001,2026-03-30_19h15.26.813,exp_sofc,,2025.2.3,60.0959371464862,2026-03-30 19h15.28.089558 +0200,
,104,0,104,,,,,,,,,,,,,,,,,,,,,,None,None,,,,,,,,,,,,,104,0,104,0,1483.9494077000127,,,,,,,,,,,,,,,,,,,,,,,,,,,,,,,,,,,,,,,,,,,,,,clips/clip_holo_26_sub_2.mp4,audios/silence.mp3,visual,1483.9448863000143,1484.3349566000106,1484.536434700014,1484.536434700014,1484.5360279666822,1485.7868789000204,1493.9822253000166,1493.7327641000156,[6.125124999991385],1493.8546647000185,1493.8547624000057,None,1493.8548520000186,1493.8549072000023,None,,,,,,,,,,,,,,310,001,2026-03-30_19h15.26.813,exp_sofc,,2025.2.3,60.0959371464862,2026-03-30 19h15.28.089558 +0200,
,105,0,105,,,,,,,,,,,,,,,,,,,,,,None,None,,,,,,,,,,,,,105,0,105,0,1493.9822253000166,,,,,,,,,,,,,,,,,,,,,,,,,,,,,,,,,,,,,,,,,,,,,,clips/clip_herz_15_nosub_0.mp4,audios/silence.mp3,visual,1493.9774724000017,1494.358861900022,1494.559236000001,1494.559236000001,1494.5603047666702,1495.8105400000059,1506.8181001000048,1506.5779893000145,[3.3856268000090495],1506.7031494000112,1506.7032156000205,None,1506.7033300000185,1506.703376999998,None,,,,,,,,,,,,,,310,001,2026-03-30_19h15.26.813,exp_sofc,,2025.2.3,60.0959371464862,2026-03-30 19h15.28.089558 +0200,
,106,0,106,,,,,,,,,,,,,,,,,,,,,,None,None,,,,,,,,,,,,,106,0,106,0,1506.8181001000048,,,,,,,,,,,,,,,,,,,,,,,,,,,,,,,,,,,,,,,,,,,,,,clips/clip_wurst_34_sub_2.mp4,audios/silence.mp3,visual,1506.8144488000253,1507.2045559000107,1507.404080600012,1507.404080600012,1507.4046673666783,1508.6554010000254,1516.2117327000014,1515.9339605999994,"[4.269619600003352, 6.37891299999319]",1516.0655487000186,1516.0656179000216,None,1516.0656850000087,1516.0657320000173,None,,,,,,,,,,,,,,310,001,2026-03-30_19h15.26.813,exp_sofc,,2025.2.3,60.0959371464862,2026-03-30 19h15.28.089558 +0200,
,107,0,107,,,,,,,,,,,,,,,,,,,,,,None,None,,,,,,,,,,,,,107,0,107,0,1516.2117327000014,,,,,,,,,,,,,,,,,,,,,,,,,,,,,,,,,,,,,,,,,,,,,,clips/clip_lied_17_sub_2.mp4,audios/clip_lied_17_sub_2.mp3,audiovisual,1516.206548600021,1516.5678181000112,1516.7843186000246,1516.7843186000246,1516.7687739666765,1526.8007999000256,1527.0992702000076,1526.8011072000081,[7.882594299997436],1526.9446285000013,1526.9447602000146,None,1526.9448770000017,1526.9449332000222,None,,,,,,,,,,,,,,310,001,2026-03-30_19h15.26.813,exp_sofc,,2025.2.3,60.0959371464862,2026-03-30 19h15.28.089558 +0200,
,108,0,108,,,,,,,,,,,,,,,,,,,,,,None,None,,,,,,,,,,,,,108,0,108,0,1527.0992702000076,,,,,,,,,,,,,,,,,,,,,,,,,,,,,,,,,,,,,,,,,,,,,,clips/clip_holo_23_sub_1.mp4,audios/silence.mp3,visual,1527.0940515000257,1527.461502799997,1527.6611518000136,1527.6438388000242,1527.6450425666737,1528.8955564000062,1537.9174381000048,1537.6762721000123,[],1537.7960650000023,1537.7961698000145,None,1537.7962619000173,1537.796299300011,None,,,,,,,,,,,,,,310,001,2026-03-30_19h15.26.813,exp_sofc,,2025.2.3,60.0959371464862,2026-03-30 19h15.28.089558 +0200,
,109,0,109,,,,,,,,,,,,,,,,,,,,,,None,None,,,,,,,,,,,,,109,0,109,0,1537.9174381000048,,,,,,,,,,,,,,,,,,,,,,,,,,,,,,,,,,,,,,,,,,,,,,clips/clip_claude_23_sub_0.mp4,audios/silence.mp3,visual,1537.9104164000018,1538.3003661000112,1538.5136479000212,1538.5136479000212,1538.5018905666695,1539.7534022000036,1550.892059100006,1550.6530506999989,[],1550.7804514000018,1550.7805668000074,None,1550.7806431000063,1550.780684199999,None,,,,,,,,,,,,,,310,001,2026-03-30_19h15.26.813,exp_sofc,,2025.2.3,60.0959371464862,2026-03-30 19h15.28.089558 +0200,
,110,0,110,,,,,,,,,,,,,,,,,,,,,,None,None,,,,,,,,,,,,,110,0,110,0,1550.892059100006,,,,,,,,,,,,,,,,,,,,,,,,,,,,,,,,,,,,,,,,,,,,,,clips/clip_weißt_19_sub_1.mp4,audios/silence.mp3,visual,1550.889013500011,1551.2952102000127,1551.5077127999975,1551.5077127999975,1551.4949815666807,1552.74634100002,1561.8558429999975,1561.5270189000003,[],1561.652026900003,1561.652131800016,None,1561.6523190000153,1561.6523848000215,None,,,,,,,,,,,,,,310,001,2026-03-30_19h15.26.813,exp_sofc,,2025.2.3,60.0959371464862,2026-03-30 19h15.28.089558 +0200,
,111,0,111,,,,,,,,,,,,,,,,,,,,,,None,None,,,,,,,,,,,,,111,0,111,0,1561.8558429999975,,,,,,,,,,,,,,,,,,,,,,,,,,,,,,,,,,,,,,,,,,,,,,clips/clip_claude_20_sub_1.mp4,audios/clip_claude_20_sub_1.mp3,audiovisual,1561.850409400009,1562.161370100017,1562.3620883999974,1562.3620883999974,1562.3640194666843,1574.3965604999976,1574.6902781000244,1574.3968555000029,[6.843190700019477],1574.5491280000133,1574.5491983000247,None,1574.5492689000093,1574.5493151000119,None,,,,,,,,,,,,,,310,001,2026-03-30_19h15.26.813,exp_sofc,,2025.2.3,60.0959371464862,2026-03-30 19h15.28.089558 +0200,
,112,0,112,,,,,,,,,,,,,,,,,,,,,,4,None,4.866146499989554,None,,,,,,,,,,,112,0,112,0,1574.6902781000244,,,,,,,,,,,,,,,,,,,,,,,,,,,,,,,,,,,,,,,,,,,,,,clips/clip_wurst_36_nosub_0.mp4,audios/clip_wurst_36_nosub_0.mp3,audiovisual,1574.6856308999995,1575.056939400005,1575.2568565000256,1575.2568565000256,1575.257243366683,1585.1333112000138,1585.2664678000147,1585.1337317000143,[],1585.2581790999975,1590.148290000012,4,1590.148453300004,1590.1485484000004,None,4,1585.2664678000147,1585.2664678000147,1585.2664678000147,4.866146499989554,None,,,,,,,,310,001,2026-03-30_19h15.26.813,exp_sofc,,2025.2.3,60.0959371464862,2026-03-30 19h15.28.089558 +0200,
,113,0,113,,,,,,,,,,,,,,,,,,,,,,3,None,3.465026999998372,None,,,,,,,,,,,113,0,113,0,1590.3953541000083,,,,,,,,,,,,,,,,,,,,,,,,,,,,,,,,,,,,,,,,,,,,,,clips/clip_holo_14_sub_0.mp4,audios/clip_holo_14_sub_0.mp3,audiovisual,1590.3865183000162,1590.6557745000173,1590.8557212000014,1590.8557212000014,1590.8560900666673,1600.8871988000174,1601.0384654000227,1600.887499000004,[],1601.0316080000193,1604.5191673000227,3,1604.5192917000095,1604.5193417000119,None,3,1601.0384654000227,1601.0384654000227,1601.0384654000227,3.465026999998372,None,,,,,,,,310,001,2026-03-30_19h15.26.813,exp_sofc,,2025.2.3,60.0959371464862,2026-03-30 19h15.28.089558 +0200,
,114,0,114,,,,,,,,,,,,,,,,,,,,,,None,None,,,,,,,,,,,,,114,0,114,0,1604.713492800016,,,,,,,,,,,,,,,,,,,,,,,,,,,,,,,,,,,,,,,,,,,,,,clips/clip_wurst_22_nosub_0.mp4,audios/clip_wurst_22_nosub_0.mp3,audiovisual,1604.7063794000132,1605.0274391999992,1605.2343726000108,1605.2343726000108,1605.228066166692,1617.1798376000079,1617.1798376000079,1616.9377928000176,[],1617.0552113000012,1617.0552727000031,None,1617.0553249000222,1617.0553555000224,None,,,,,,,,,,,,,,310,001,2026-03-30_19h15.26.813,exp_sofc,,2025.2.3,60.0959371464862,2026-03-30 19h15.28.089558 +0200,
,115,0,115,,,,,,,,,,,,,,,,,,,,,,None,None,,,,,,,,,,,,,115,0,115,0,1617.1798376000079,,,,,,,,,,,,,,,,,,,,,,,,,,,,,,,,,,,,,,,,,,,,,,clips/clip_claude_15_sub_0.mp4,audios/silence.mp3,visual,1617.175667500007,1617.556366100005,1617.7812779000087,1617.769393900002,1617.7550312666901,1619.007645500009,1630.0447515000124,1629.7759336000017,[],1629.8879166000115,1629.8880514000193,None,1629.8881924000161,1629.888266599999,None,,,,,,,,,,,,,,310,001,2026-03-30_19h15.26.813,exp_sofc,,2025.2.3,60.0959371464862,2026-03-30 19h15.28.089558 +0200,
,116,0,116,,,,,,,,,,,,,,,,,,,,,,None,None,,,,,,,,,,,,,116,0,116,0,1630.0447515000124,,,,,,,,,,,,,,,,,,,,,,,,,,,,,,,,,,,,,,,,,,,,,,clips/clip_herz_05_nosub_0.mp4,audios/clip_herz_05_nosub_0.mp3,audiovisual,1630.0402471999987,1630.3919438000012,1630.6006674000237,1630.6006674000237,1630.5931359666904,,1641.17403200001,1640.8920478000073,[],1641.0598019000026,1641.0598937000032,None,1641.0599756000156,1641.0600416000234,None,,,,,,,,,,,,,,310,001,2026-03-30_19h15.26.813,exp_sofc,,2025.2.3,60.0959371464862,2026-03-30 19h15.28.089558 +0200,
,117,0,117,,,,,,,,,,,,,,,,,,,,,,None,None,,,,,,,,,,,,,117,0,117,0,1641.17403200001,,,,,,,,,,,,,,,,,,,,,,,,,,,,,,,,,,,,,,,,,,,,,,clips/clip_claude_16_sub_1.mp4,audios/silence.mp3,visual,1641.1705133000214,1641.559871800011,1641.7794511000102,1641.7794511000102,1641.7599821666702,1643.0114672000054,1653.2289708000026,1652.9442389000033,[9.024417000007816],1653.088363500021,1653.0884482999973,None,1653.0885326999996,1653.0885842000134,None,,,,,,,,,,,,,,310,001,2026-03-30_19h15.26.813,exp_sofc,,2025.2.3,60.0959371464862,2026-03-30 19h15.28.089558 +0200,
,118,0,118,,,,,,,,,,,,,,,,,,,,,,None,None,,,,,,,,,,,,,118,0,118,0,1653.2289708000026,,,,,,,,,,,,,,,,,,,,,,,,,,,,,,,,,,,,,,,,,,,,,,clips/clip_hund_17_sub_1.mp4,audios/silence.mp3,visual,1653.22422980002,1653.5984794000105,1653.8086463000218,1653.8086463000218,1653.7977154666771,1655.0324054000084,1666.3344745000068,1666.0841675999982,[10.078078199992888],1666.2090930000122,1666.2094053000037,None,1666.2094937000074,1666.2095545000047,None,,,,,,,,,,,,,,310,001,2026-03-30_19h15.26.813,exp_sofc,,2025.2.3,60.0959371464862,2026-03-30 19h15.28.089558 +0200,
,119,0,119,,,,,,,,,,,,,,,,,,,,,,None,space,,,61.509554600022966,None,,,,,,,,,119,0,119,0,1666.3344745000068,,,,,,,,,,,,,,,,,,,,,,,,,,,,,,,,,,,,,,,,,,,,,,clips/clip_lied_05_nosub_0.mp4,audios/silence.mp3,visual,1666.329310800007,1666.7095966000052,1666.9101295,1666.9101295,1666.909849266671,1668.1627160000207,1676.4362555000116,1676.3094914000249,[],1676.4257282000035,1676.4258255000168,None,1676.4258993999974,1737.9553803000017,space,,,,,,,1676.4362555000116,1676.4362555000116,1676.4362555000116,61.509554600022966,None,,,310,001,2026-03-30_19h15.26.813,exp_sofc,,2025.2.3,60.0959371464862,2026-03-30 19h15.28.089558 +0200,
,120,0,120,,,,,,,,,,,,,,,,,,,,,,None,None,,,,,,,,,,,,,120,0,120,0,1738.0951281000162,,,,,,,,,,,,,,,,,,,,,,,,,,,,,,,,,,,,,,,,,,,,,,clips/clip_dampf_05_sub_2.mp4,audios/silence.mp3,visual,1738.089098700002,1738.463359300018,1738.6736098999972,1738.6736098999972,1738.6645190666643,1739.915040300024,1747.644543900009,1747.3600783000002,"[3.606768900004681, 9.222566500015091]",1747.5034571000142,1747.5035533000191,None,1747.5036453000212,1747.5037007000064,None,,,,,,,,,,,,,,310,001,2026-03-30_19h15.26.813,exp_sofc,,2025.2.3,60.0959371464862,2026-03-30 19h15.28.089558 +0200,
,121,0,121,,,,,,,,,,,,,,,,,,,,,,None,None,,,,,,,,,,,,,121,0,121,0,1747.644543900009,,,,,,,,,,,,,,,,,,,,,,,,,,,,,,,,,,,,,,,,,,,,,,clips/clip_hund_18_nosub_1.mp4,audios/silence.mp3,visual,1747.638835700025,1748.011833800003,1748.212677500007,1748.212677500007,1748.2130294666897,1749.464179100003,1758.488897400006,1758.2450053000066,[6.980872400017688],1758.37304950002,1758.3731343000254,None,1758.3732167000126,1758.3732668000157,None,,,,,,,,,,,,,,310,001,2026-03-30_19h15.26.813,exp_sofc,,2025.2.3,60.0959371464862,2026-03-30 19h15.28.089558 +0200,
,122,0,122,,,,,,,,,,,,,,,,,,,,,,None,None,,,,,,,,,,,,,122,0,122,0,1758.488897400006,,,,,,,,,,,,,,,,,,,,,,,,,,,,,,,,,,,,,,,,,,,,,,clips/clip_lied_01_nosub_1.mp4,audios/silence.mp3,visual,1758.4852038000245,1758.887801200006,1759.0915194000117,1759.0915194000117,1759.087325966688,1760.339757800015,1769.3937812000222,1769.1201134000148,[4.912098800006788],1769.2638039000158,1769.263868000009,None,1769.26393440002,1769.263982400007,None,,,,,,,,,,,,,,310,001,2026-03-30_19h15.26.813,exp_sofc,,2025.2.3,60.0959371464862,2026-03-30 19h15.28.089558 +0200,
,123,0,123,,,,,,,,,,,,,,,,,,,,,,None,None,,,,,,,,,,,,,123,0,123,0,1769.3937812000222,,,,,,,,,,,,,,,,,,,,,,,,,,,,,,,,,,,,,,,,,,,,,,clips/clip_holo_22_nosub_1.mp4,audios/silence.mp3,visual,1769.389664300019,1769.7709510000132,1769.9855361000227,1769.9855361000227,1769.9726805666908,1771.2233384000137,1779.4121816999977,1779.185741000023,[9.318506300012814],1779.298440500017,1779.298507200001,None,1779.2985754000256,1779.298630300007,None,,,,,,,,,,,,,,310,001,2026-03-30_19h15.26.813,exp_sofc,,2025.2.3,60.0959371464862,2026-03-30 19h15.28.089558 +0200,
,124,0,124,,,,,,,,,,,,,,,,,,,,,,None,None,,,,,,,,,,,,,124,0,124,0,1779.4121816999977,,,,,,,,,,,,,,,,,,,,,,,,,,,,,,,,,,,,,,,,,,,,,,clips/clip_wurst_19_nosub_0.mp4,audios/silence.mp3,visual,1779.407410100015,1779.802722499997,1780.0053541000234,1780.0053541000234,1780.0036731666808,1781.2620822000026,1791.2893314000103,1791.0205389000184,[],1791.156446500012,1791.1565285000252,None,1791.1566018000012,1791.15669850001,None,,,,,,,,,,,,,,310,001,2026-03-30_19h15.26.813,exp_sofc,,2025.2.3,60.0959371464862,2026-03-30 19h15.28.089558 +0200,
,125,0,125,,,,,,,,,,,,,,,,,,,,,,1,None,3.208125500008464,None,,,,,,,,,,,125,0,125,0,1791.2893314000103,,,,,,,,,,,,,,,,,,,,,,,,,,,,,,,,,,,,,,,,,,,,,,clips/clip_weißt_17_sub_0.mp4,audios/clip_weißt_17_sub_0.mp3,audiovisual,1791.2842602000164,1791.671481199999,1791.8827755000093,1791.8827755000093,1791.8726762666813,1803.5455308000091,1803.5455308000091,1803.3901447000098,[],1803.5390950000146,1806.7706707000034,1,1806.7707588000048,1806.7707916000218,None,1,1803.5455308000091,1803.5455308000091,1803.5455308000091,3.208125500008464,None,,,,,,,,310,001,2026-03-30_19h15.26.813,exp_sofc,,2025.2.3,60.0959371464862,2026-03-30 19h15.28.089558 +0200,
,126,0,126,,,,,,,,,,,,,,,,,,,,,,None,None,,,,,,,,,,,,,126,0,126,0,1806.9333083000092,,,,,,,,,,,,,,,,,,,,,,,,,,,,,,,,,,,,,,,,,,,,,,clips/clip_wurst_05_nosub_0.mp4,audios/clip_wurst_05_nosub_0.mp3,audiovisual,1806.9267053000221,1807.2854061000107,1807.4949812999985,1807.4949812999985,1807.4853362666656,1816.4761658000061,1816.4761658000061,1816.2035762000014,[],1816.3302311000007,1816.330291899998,None,1816.3303403000173,1816.3303706000152,None,,,,,,,,,,,,,,310,001,2026-03-30_19h15.26.813,exp_sofc,,2025.2.3,60.0959371464862,2026-03-30 19h15.28.089558 +0200,
,127,0,127,,,,,,,,,,,,,,,,,,,,,,None,None,,,,,,,,,,,,,127,0,127,0,1816.4761658000061,,,,,,,,,,,,,,,,,,,,,,,,,,,,,,,,,,,,,,,,,,,,,,clips/clip_wurst_17_sub_0.mp4,audios/clip_wurst_17_sub_0.mp3,audiovisual,1816.4707631000201,1816.8336087000207,1817.0338578000083,1817.0338578000083,1817.0336244666871,1825.0624558000127,1825.353779099998,1825.0628012000234,[],1825.1923190000234,1825.1923833000183,None,1825.1924490000238,1825.1924991999986,None,,,,,,,,,,,,,,310,001,2026-03-30_19h15.26.813,exp_sofc,,2025.2.3,60.0959371464862,2026-03-30 19h15.28.089558 +0200,
,128,0,128,,,,,,,,,,,,,,,,,,,,,,None,None,,,,,,,,,,,,,128,0,128,0,1825.353779099998,,,,,,,,,,,,,,,,,,,,,,,,,,,,,,,,,,,,,,,,,,,,,,clips/clip_wurst_28_nosub_1.mp4,audios/clip_wurst_28_nosub_1.mp3,audiovisual,1825.3477360999968,1825.7045953000197,1825.9054261000128,1825.9054261000128,1825.9039190666847,1836.238543000014,1836.5052466000197,1836.2388922000246,[],1836.3460108000145,1836.3461071000202,None,1836.3461734000011,1836.346222400025,None,,,,,,,,,,,,,,310,001,2026-03-30_19h15.26.813,exp_sofc,,2025.2.3,60.0959371464862,2026-03-30 19h15.28.089558 +0200,
,129,0,129,,,,,,,,,,,,,,,,,,,,,,None,None,,,,,,,,,,,,,129,0,129,0,1836.5052466000197,,,,,,,,,,,,,,,,,,,,,,,,,,,,,,,,,,,,,,,,,,,,,,clips/clip_claude_21_nosub_1.mp4,audios/clip_claude_21_nosub_1.mp3,audiovisual,1836.5007898000185,1836.8558517000056,1837.0563428000023,1837.0563428000023,1837.0548858666773,1849.3237016000203,1849.6172043000115,1849.3242037000018,[9.990047999977833],1849.4619974000088,1849.4620791000198,None,1849.4621576000063,1849.4622267000086,None,,,,,,,,,,,,,,310,001,2026-03-30_19h15.26.813,exp_sofc,,2025.2.3,60.0959371464862,2026-03-30 19h15.28.089558 +0200,
,130,0,130,,,,,,,,,,,,,,,,,,,,,,None,None,,,,,,,,,,,,,130,0,130,0,1849.6172043000115,,,,,,,,,,,,,,,,,,,,,,,,,,,,,,,,,,,,,,,,,,,,,,clips/clip_wurst_15_nosub_2.mp4,audios/clip_wurst_15_nosub_2.mp3,audiovisual,1849.6131890999968,1849.967243400024,1850.1667278000095,1850.1667278000095,1850.1670236666725,1859.5997841000208,1859.8824607999995,1859.600189400022,[5.500468699989142],1859.7366481000208,1859.7367174000246,None,1859.7367911000038,1859.7368248999992,None,,,,,,,,,,,,,,310,001,2026-03-30_19h15.26.813,exp_sofc,,2025.2.3,60.0959371464862,2026-03-30 19h15.28.089558 +0200,
,131,0,131,,,,,,,,,,,,,,,,,,,,,,None,None,,,,,,,,,,,,,131,0,131,0,1859.8824607999995,,,,,,,,,,,,,,,,,,,,,,,,,,,,,,,,,,,,,,,,,,,,,,clips/clip_wurst_03_sub_1.mp4,audios/clip_wurst_03_sub_1.mp3,audiovisual,1859.8769048000104,1860.2512405000161,1860.4542865000258,1860.4542865000258,1860.452534766668,,1872.6224358000036,1872.3772185000125,[4.755520900012925],1872.4964751000225,1872.4965434000187,None,1872.4966086000204,1872.496658900025,None,,,,,,,,,,,,,,310,001,2026-03-30_19h15.26.813,exp_sofc,,2025.2.3,60.0959371464862,2026-03-30 19h15.28.089558 +0200,
,132,0,132,,,,,,,,,,,,,,,,,,,,,,None,None,,,,,,,,,,,,,132,0,132,0,1872.6224358000036,,,,,,,,,,,,,,,,,,,,,,,,,,,,,,,,,,,,,,,,,,,,,,clips/clip_holo_13_sub_1.mp4,audios/silence.mp3,visual,1872.6175105000148,1872.99567080001,1873.2020017000032,1873.2020017000032,1873.1973981666708,1874.447954400006,1885.2675761000137,1885.014364600007,[5.588012699998217],1885.1316667000065,1885.1317255000176,None,1885.1317808000022,1885.131820700015,None,,,,,,,,,,,,,,310,001,2026-03-30_19h15.26.813,exp_sofc,,2025.2.3,60.0959371464862,2026-03-30 19h15.28.089558 +0200,
,133,0,133,,,,,,,,,,,,,,,,,,,,,,None,None,,,,,,,,,,,,,133,0,133,0,1885.2675761000137,,,,,,,,,,,,,,,,,,,,,,,,,,,,,,,,,,,,,,,,,,,,,,clips/clip_holo_16_sub_1.mp4,audios/clip_holo_16_sub_1.mp3,audiovisual,1885.2608062000072,1885.6403952999972,1885.842644999997,1885.842644999997,1885.840775666675,1897.8620034000196,1898.0856593000062,1897.8625229000172,[10.310313699999824],1897.9758984000073,1897.9759675000096,None,1897.9760331000143,1897.976080100023,None,,,,,,,,,,,,,,310,001,2026-03-30_19h15.26.813,exp_sofc,,2025.2.3,60.0959371464862,2026-03-30 19h15.28.089558 +0200,
,134,0,134,,,,,,,,,,,,,,,,,,,,,,None,None,,,,,,,,,,,,,134,0,134,0,1898.0856593000062,,,,,,,,,,,,,,,,,,,,,,,,,,,,,,,,,,,,,,,,,,,,,,clips/clip_wurst_12_sub_0.mp4,audios/silence.mp3,visual,1898.0795332000125,1898.476856399997,1898.685215800011,1898.685215800011,1898.6786742666775,1899.9295779000095,1907.5300762999977,1907.3076864000177,[],1907.4215532000235,1907.4216240000096,None,1907.4216949999973,1907.4217505000124,None,,,,,,,,,,,,,,310,001,2026-03-30_19h15.26.813,exp_sofc,,2025.2.3,60.0959371464862,2026-03-30 19h15.28.089558 +0200,
,135,0,135,,,,,,,,,,,,,,,,,,,,,,None,None,,,,,,,,,,,,,135,0,135,0,1907.5300762999977,,,,,,,,,,,,,,,,,,,,,,,,,,,,,,,,,,,,,,,,,,,,,,clips/clip_herz_04_nosub_0.mp4,audios/silence.mp3,visual,1907.5229342000093,1907.925437900005,1908.1271912000084,1908.1271912000084,1908.1262215666686,1909.3774841999984,1919.3983651000017,1919.1596275000193,[7.8881177000002936],1919.279692800017,1919.2797627000255,None,1919.279830000014,1919.2798780000012,None,,,,,,,,,,,,,,310,001,2026-03-30_19h15.26.813,exp_sofc,,2025.2.3,60.0959371464862,2026-03-30 19h15.28.089558 +0200,
,136,0,136,,,,,,,,,,,,,,,,,,,,,,None,None,,,,,,,,,,,,,136,0,136,0,1919.3983651000017,,,,,,,,,,,,,,,,,,,,,,,,,,,,,,,,,,,,,,,,,,,,,,clips/clip_weißt_14_nosub_2.mp4,audios/silence.mp3,visual,1919.3911842000089,1919.7827280000201,1919.9953142000013,1919.9953142000013,1919.9825584666726,1921.2340185000212,1929.196239300014,1928.9126442999986,"[2.5473091000167187, 8.483468000020366]",1929.0451426000218,1929.0452310000255,None,1929.0452944000135,1929.0453381999978,None,,,,,,,,,,,,,,310,001,2026-03-30_19h15.26.813,exp_sofc,,2025.2.3,60.0959371464862,2026-03-30 19h15.28.089558 +0200,
,137,0,137,,,,,,,,,,,,,,,,,,,,,,None,None,,,,,,,,,,,,,137,0,137,0,1929.196239300014,,,,,,,,,,,,,,,,,,,,,,,,,,,,,,,,,,,,,,,,,,,,,,clips/clip_hund_10_nosub_0.mp4,audios/clip_hund_10_nosub_0.mp3,audiovisual,1929.191902999999,1929.5478532999987,1929.748895800003,1929.748895800003,1929.7480689666738,1939.266879200004,1939.5152162000013,1939.2671903000155,[8.239483500015922],1939.373181300005,1939.3732490000257,None,1939.3733176000242,1939.3733625000168,None,,,,,,,,,,,,,,310,001,2026-03-30_19h15.26.813,exp_sofc,,2025.2.3,60.0959371464862,2026-03-30 19h15.28.089558 +0200,
,138,0,138,,,,,,,,,,,,,,,,,,,,,,None,None,,,,,,,,,,,,,138,0,138,0,1939.5152162000013,,,,,,,,,,,,,,,,,,,,,,,,,,,,,,,,,,,,,,,,,,,,,,clips/clip_weißt_12_sub_1.mp4,audios/silence.mp3,visual,1939.511095200025,1939.872273200017,1940.0865741000162,1940.0865741000162,1940.0738043666681,1941.3248540000059,1952.255816000019,1951.9916832000017,[9.23035970001365],1952.110502399999,1952.1105956000101,None,1952.1106857999985,1952.110800000024,None,,,,,,,,,,,,,,310,001,2026-03-30_19h15.26.813,exp_sofc,,2025.2.3,60.0959371464862,2026-03-30 19h15.28.089558 +0200,
,139,0,139,,,,,,,,,,,,,,,,,,,,,,None,None,,,,,,,,,,,,,139,0,139,0,1952.255816000019,,,,,,,,,,,,,,,,,,,,,,,,,,,,,,,,,,,,,,,,,,,,,,clips/clip_hund_01_sub_0.mp4,audios/clip_hund_01_sub_0.mp3,audiovisual,1952.2507733000093,1952.6248897000041,1952.8284949000226,1952.8284949000226,1952.82529526667,,1963.8996952000016,1963.6328061000095,[],1963.7652681000181,1963.7653591000126,None,1963.765467899997,1963.7655369999993,None,,,,,,,,,,,,,,310,001,2026-03-30_19h15.26.813,exp_sofc,,2025.2.3,60.0959371464862,2026-03-30 19h15.28.089558 +0200,
,140,0,140,,,,,,,,,,,,,,,,,,,,,,None,None,,,,,,,,,,,,,140,0,140,0,1963.8996952000016,,,,,,,,,,,,,,,,,,,,,,,,,,,,,,,,,,,,,,,,,,,,,,clips/clip_claude_09_nosub_2.mp4,audios/silence.mp3,visual,1963.894809600024,1964.2765512000187,1964.4798480000172,1964.4798480000172,1964.4772835666702,1965.7283392000245,1974.9469676000008,1974.7089003,[4.019871099997545],1974.811299699999,1974.8113723999995,None,1974.8114863000228,1974.8115383000113,None,,,,,,,,,,,,,,310,001,2026-03-30_19h15.26.813,exp_sofc,,2025.2.3,60.0959371464862,2026-03-30 19h15.28.089558 +0200,
,141,0,141,,,,,,,,,,,,,,,,,,,,,,None,None,,,,,,,,,,,,,141,0,141,0,1974.9469676000008,,,,,,,,,,,,,,,,,,,,,,,,,,,,,,,,,,,,,,,,,,,,,,clips/clip_lied_12_sub_0.mp4,audios/silence.mp3,visual,1974.9422923000238,1975.3165360999992,1975.5232195999997,1975.5232195999997,1975.5169318666779,1976.767662600003,1984.8250364999985,1984.546541400021,[],1984.6701767000195,1984.6702460000233,None,1984.6703132000112,1984.670359300013,None,,,,,,,,,,,,,,310,001,2026-03-30_19h15.26.813,exp_sofc,,2025.2.3,60.0959371464862,2026-03-30 19h15.28.089558 +0200,
,142,0,142,,,,,,,,,,,,,,,,,,,,,,4,None,3.0272778999933507,None,,,,,,,,,,,142,0,142,0,1984.8250364999985,,,,,,,,,,,,,,,,,,,,,,,,,,,,,,,,,,,,,,,,,,,,,,clips/clip_hund_04_sub_0.mp4,audios/clip_hund_04_sub_0.mp3,audiovisual,1984.8208301000122,1985.1804106000054,1985.385362400004,1985.385362400004,1985.3806986666789,1994.9126306000107,1995.0757498000166,1994.9129222000192,[],1995.069302000018,1998.1165481000207,4,1998.1166540000122,1998.1166888000153,None,4,1995.0757498000166,1995.0757498000166,1995.0757498000166,3.0272778999933507,None,,,,,,,,310,001,2026-03-30_19h15.26.813,exp_sofc,,2025.2.3,60.0959371464862,2026-03-30 19h15.28.089558 +0200,
,143,0,143,,,,,,,,,,,,,,,,,,,,,,2,None,4.558800300001167,None,,,,,,,,,,,143,0,143,0,1998.250882000022,,,,,,,,,,,,,,,,,,,,,,,,,,,,,,,,,,,,,,,,,,,,,,clips/clip_wurst_29_sub_1.mp4,audios/silence.mp3,visual,1998.2453180000011,1998.6203755000024,1998.8312835000106,1998.8312835000106,1998.820793666677,2000.0712670000212,2010.973737799999,2010.8386608000146,[],2010.9687104000186,2015.5490281000093,2,2015.5491321000154,2015.5491668000177,None,2,2010.973737799999,2010.973737799999,2010.973737799999,4.558800300001167,None,,,,,,,,310,001,2026-03-30_19h15.26.813,exp_sofc,,2025.2.3,60.0959371464862,2026-03-30 19h15.28.089558 +0200,
,144,0,144,,,,,,,,,,,,,,,,,,,,,,None,None,,,,,,,,,,,,,144,0,144,0,2015.6968963000108,,,,,,,,,,,,,,,,,,,,,,,,,,,,,,,,,,,,,,,,,,,,,,clips/clip_claude_29_sub_0.mp4,audios/silence.mp3,visual,2015.6909589999996,2016.0578930000192,2016.258845400007,2016.258845400007,2016.2597482666645,2017.5102643000137,2026.588580200012,2026.290714200004,[],2026.4351762000006,2026.4352414000023,None,2026.4352960000106,2026.4353252,None,,,,,,,,,,,,,,310,001,2026-03-30_19h15.26.813,exp_sofc,,2025.2.3,60.0959371464862,2026-03-30 19h15.28.089558 +0200,
,145,0,145,,,,,,,,,,,,,,,,,,,,,,None,None,,,,,,,,,,,,,145,0,145,0,2026.588580200012,,,,,,,,,,,,,,,,,,,,,,,,,,,,,,,,,,,,,,,,,,,,,,clips/clip_claude_25_nosub_0.mp4,audios/clip_claude_25_nosub_0.mp3,audiovisual,2026.5823594000249,2026.9498857000144,2027.1538068000227,2027.1349473000155,2027.1343955666855,,2037.6167180000048,2037.3398238000227,[],2037.4969411000202,2037.4970741000143,None,2037.497157500009,2037.4972008000186,None,,,,,,,,,,,,,,310,001,2026-03-30_19h15.26.813,exp_sofc,,2025.2.3,60.0959371464862,2026-03-30 19h15.28.089558 +0200,
,146,0,146,,,,,,,,,,,,,,,,,,,,,,4,None,4.508135600015521,None,,,,,,,,,,,146,0,146,0,2037.6167180000048,,,,,,,,,,,,,,,,,,,,,,,,,,,,,,,,,,,,,,,,,,,,,,clips/clip_hund_35_nosub_0.mp4,audios/silence.mp3,visual,2037.6118320000242,2038.0013532000012,2038.2041520000203,2038.2041520000203,2038.2021516666903,2039.4537677000044,2048.767085700005,2048.6351765000145,[],2048.761986700003,2053.2769305000256,4,2053.2770175000187,2053.277049299999,None,4,2048.767085700005,2048.767085700005,2048.767085700005,4.508135600015521,None,,,,,,,,310,001,2026-03-30_19h15.26.813,exp_sofc,,2025.2.3,60.0959371464862,2026-03-30 19h15.28.089558 +0200,
