instruction_text,thisN,thisTrialN,thisRepN,key_resp_instruction.keys,key_resp_instruction.rt,key_resp_instruction.duration,clip_file,clip_path,sound_path,movie,subtitles,n_cut,clip_num,first_cut,second_cut,clip_duration,attention_check_question,attention_check_correct,attention_check_distractor_1,attention_check_distractor_2,attention_check_distractor_3,prac_attention_resp.keys,prac_attention_resp.rt,prac_attention_resp.duration,exp_atttention_resp.keys,exp_atttention_resp.rt,exp_atttention_resp.duration,exp_pause_resp.keys,exp_pause_resp.rt,exp_pause_resp.duration,instruction_trials.thisRepN,instruction_trials.thisTrialN,instruction_trials.thisN,instruction_trials.thisIndex,practice_trials.thisRepN,practice_trials.thisTrialN,practice_trials.thisN,practice_trials.thisIndex,experiment_trials.thisRepN,experiment_trials.thisTrialN,experiment_trials.thisN,experiment_trials.thisIndex,thisRow.t,notes,instructions.started,text_instruction.started,key_resp_instruction.started,instructions.stopped,instruction_trials.key_resp_instruction.keys,instruction_trials.key_resp_instruction.rt,instruction_trials.key_resp_instruction.duration,informed_consent.started,slider_informed_consent.started,text_informed_consent.started,informed_consent.stopped,slider_informed_consent.response,slider_informed_consent.rt,begin_practice.started,begin_practice_text.started,begin_practice.stopped,Practice_clip_name,Practice_video_used,Practice_audio_used,Practice_modality,Practice_subtitles,Practice_attention_check,practice_clip.started,prac_feedback.started,prac_fixation_cross.started,prac_fixation_cross.stopped,prac_clip.started,prac_sound.started,prac_clip.stopped,practice_clip.stopped,prac_all_cut_rts,practice_attention_check.started,practice_attention_check.stopped,practice_trials.prac_attention_resp.keys,prac_sound.stopped,Practice_correct_key_required,prac_attention_resp.started,prac_question.started,prac_options.started,practice_trials.prac_attention_resp.rt,practice_trials.prac_attention_resp.duration,begin_experiment.started,begin_experiment_text.started,begin_experiment_text.stopped,begin_experiment.stopped,video_used,audio_used,condition_modality,experiment_clip.started,exp_fixation_cross.started,exp_fixation_cross.stopped,exp_clip.started,exp_sound.started,exp_sound.stopped,exp_clip.stopped,experiment_clip.stopped,all_cut_rts,correct_key_required,experiment_attention_check.started,exp_atttention_resp.started,exp_question.started,exp_options.started,experiment_attention_check.stopped,experiment_trials.exp_atttention_resp.keys,experiment_trials.exp_atttention_resp.rt,experiment_trials.exp_atttention_resp.duration,experiment_pause.started,experiment_pause.stopped,experiment_trials.exp_pause_resp.keys,exp_pause_text.started,exp_pause_resp.started,exp_countdown.started,experiment_trials.exp_pause_resp.rt,experiment_trials.exp_pause_resp.duration,end.started,text_end.started,participant,session,date,expName,expVersion,psychopyVersion,frameRate,expStart,
"Herzlich willkommen!

Vielen Dank, dass Sie an unserer Studie teilnehmen. Die Untersuchung wird insgesamt etwa 35 Minuten in Anspruch nehmen.

Bevor wir beginnen, beachten Sie bitte folgende Voraussetzungen für die Teilnahme:
• Sie sind mindestens 18 Jahre alt.
• Ihre Muttersprache ist Deutsch.

(Drücken Sie die Leertaste, um fortzufahren)",0,0,0,space,6.130424699999821,None,,,,,,,,,,,,,,,,,,,,,,,,,0,0,0,0,,,,,,,,,0.04732500000000073,,0.018235700000332145,0.04732500000000073,0.04732500000000073,6.189410299999963,space,6.130424699999821,None,,,,,,,,,,,,,,,,,,,,,,,,,,,,,,,,,,,,,,,,,,,,,,,,,,,,,,,,,,,,,,,,,,,,,,315,001,2026-03-31_14h58.11.568,exp_sofc,,2025.2.3,60.564289598979194,2026-03-31 14h58.12.469611 +0200,
"Ablauf der Studie

Ihnen werden in schneller Abfolge viele kurze Filmclips gezeigt.
Ihre Aufgabe ist einfach:

Drücken Sie jedes Mal die Leertaste, wenn Sie einen Filmschnitt (Cut) erkennen.

Zusätzlich werden Ihnen gelegentlich kurze Verständnisfragen zu den gezeigten Clips gestellt.

(Drücken Sie die Leertaste, um fortzufahren),",1,1,0,space,5.592244999999821,None,,,,,,,,,,,,,,,,,,,,,,,,,0,1,1,1,,,,,,,,,6.213656400000218,,6.189525000000231,6.213656400000218,6.213656400000218,11.80931499999997,space,5.592244999999821,None,,,,,,,,,,,,,,,,,,,,,,,,,,,,,,,,,,,,,,,,,,,,,,,,,,,,,,,,,,,,,,,,,,,,,,315,001,2026-03-31_14h58.11.568,exp_sofc,,2025.2.3,60.564289598979194,2026-03-31 14h58.12.469611 +0200,
"Freiwilligkeit Ihrer Teilnahme

Ihre Teilnahme an dieser Studie ist absolut freiwillig. Sie können das Experiment jederzeit und ohne Angabe von Gründen abbrechen, ohne dass Ihnen daraus irgendwelche Nachteile entstehen.

Sollten Sie die Studie vorzeitig beenden, werden Ihre bis dahin erhobenen Daten umgehend gelöscht und nicht gespeichert.

(Drücken Sie die Leertaste, um fortzufahren)",2,2,0,space,5.184039899999789,None,,,,,,,,,,,,,,,,,,,,,,,,,0,2,2,2,,,,,,,,,11.932621599999948,,11.809449500000028,11.932621599999948,11.932621599999948,17.132628600000317,space,5.184039899999789,None,,,,,,,,,,,,,,,,,,,,,,,,,,,,,,,,,,,,,,,,,,,,,,,,,,,,,,,,,,,,,,,,,,,,,,315,001,2026-03-31_14h58.11.568,exp_sofc,,2025.2.3,60.564289598979194,2026-03-31 14h58.12.469611 +0200,
"Datenschutz und Anonymität

Die Erhebung und Auswertung Ihrer Daten erfolgt am Fachbereich Psychologie der Universität Tübingen und ist vollständig anonym. Ihr Name wird zu keinem Zeitpunkt erfragt oder gespeichert. Niemand wird Ihre Daten mit Ihrer Person in Verbindung bringen können.

Die anonymisierten Experimentaldaten werden nach Abschluss der Erhebung für mindestens 10 Jahre gespeichert und zu Forschungszwecken in einer öffentlichen Datenbank zugänglich gemacht.

(Drücken Sie die Leertaste, um fortzufahren),",3,3,0,space,7.080929400000059,None,,,,,,,,,,,,,,,,,,,,,,,,,0,3,3,3,,,,,,,,,17.162365900000168,,17.132760800000142,17.162365900000168,17.162365900000168,24.243862499999977,space,7.080929400000059,None,,,,,,,,,,,,,,,,,,,,,,,,,,,,,,,,,,,,,,,,,,,,,,,,,,,,,,,,,,,,,,,,,,,,,,315,001,2026-03-31_14h58.11.568,exp_sofc,,2025.2.3,60.564289598979194,2026-03-31 14h58.12.469611 +0200,
"Einverständniserklärung

Bitte lesen Sie die folgende Erklärung aufmerksam durch:

Ich bestätige, dass ich über 18 Jahre alt bin und ausreichend Zeit hatte, mich für die Teilnahme zu entscheiden. Ich wurde über die Erhebung, Verarbeitung und öffentliche Zugänglichmachung meiner anonymisierten Daten angemessen informiert.
Ich bin mir bewusst, dass ich das Experiment jederzeit abbrechen kann.

(Drücken Sie die Leertaste, um fortzufahren)",4,4,0,space,6.086561999999958,None,,,,,,,,,,,,,,,,,,,,,,,,,0,4,4,4,,,,,,,,,24.266683700000158,,24.244008099999974,24.266683700000158,24.266683700000158,30.369950100000096,space,6.086561999999958,None,,,,,,,,,,,,,,,,,,,,,,,,,,,,,,,,,,,,,,,,,,,,,,,,,,,,,,,,,,,,,,,,,,,,,,315,001,2026-03-31_14h58.11.568,exp_sofc,,2025.2.3,60.564289598979194,2026-03-31 14h58.12.469611 +0200,
,,,,,,,,,,,,,,,,,,,,,,,,,,,,,,,,,,,,,,,,,,,,,,,,,,,,30.370951200000036,30.385705900000175,30.385705900000175,34.97697280000011,ich stimme zu,4.590122499999779,,,,,,,,,,,,,,,,,,,,,,,,,,,,,,,,,,,,,,,,,,,,,,,,,,,,,,,,,,,,,,,,315,001,2026-03-31_14h58.11.568,exp_sofc,,2025.2.3,60.564289598979194,2026-03-31 14h58.12.469611 +0200,
,,,,,,,,,,,,,,,,,,,,,,,,,,,,,,,,,,,,,,,,,,,,,,,,,,,,,,,,,,34.977006099999926,34.993122100000164,39.984096200000295,,,,,,,,,,,,,,,,,,,,,,,,,,,,,,,,,,,,,,,,,,,,,,,,,,,,,,,,,,,,,315,001,2026-03-31_14h58.11.568,exp_sofc,,2025.2.3,60.564289598979194,2026-03-31 14h58.12.469611 +0200,
,0,0,0,,,,clip_wurst_09_sub_1,clips/clip_wurst_09_sub_1.mp4,audios/clip_wurst_09_sub_1.mp3,wurst,sub,1,9,3666.0,NA,11267,Wer sind die alten Menschen wahrscheinlich?,Großeltern,Eltern,Geschwister,Nachbarn,None,,,,,,,,,,,,,0,0,0,10,,,,,40.44718200000034,,,,,,,,,,,,,,,,,,clip_hund_06_nosub_0,clips/clip_hund_06_nosub_0.mp4,audios/clip_hund_06_nosub_0.mp3,audiovisual,nosub,False,40.442273099999966,40.44718200000034,40.4817508000001,40.68124979999993,40.68124979999993,40.68130086666703,51.81824060000008,51.56540450000011,[],51.67548119999992,51.675515500000074,None,,,,,,,,,,,,,,,,,,,,,,,,,,,,,,,,,,,,,,,,,,,315,001,2026-03-31_14h58.11.568,exp_sofc,,2025.2.3,60.564289598979194,2026-03-31 14h58.12.469611 +0200,
,1,1,0,,,,clip_weißt_10_nosub_1,clips/clip_weißt_10_nosub_1.mp4,audios/clip_weißt_10_nosub_1.mp3,weißt,nosub,1,10,4280.0,NA,11000,Was macht der Mann?,er greift an den Fernseher,er schaltet das Radio ein,er wirft eine Flasche,er öffnet das Fenster,None,,,,,,,,,,,,,0,1,1,6,,,,,51.81824060000008,,,,,,,,,,,,,,,,,,clip_weißt_10_nosub_1,clips/clip_weißt_10_nosub_1.mp4,audios/clip_weißt_10_nosub_1.mp3,audiovisual,nosub,False,51.81362300000001,51.81824060000008,52.19169600000032,52.39101470000014,52.39101470000014,52.39194746666659,63.64509350000026,63.40937669999994,"[0.29746079999995345, 5.614010499999949]",63.5200775000003,63.520111199999974,None,63.64509350000026,,,,,,,,,,,,,,,,,,,,,,,,,,,,,,,,,,,,,,,,,,315,001,2026-03-31_14h58.11.568,exp_sofc,,2025.2.3,60.564289598979194,2026-03-31 14h58.12.469611 +0200,
,2,2,0,,,,clip_weißt_18_nosub_1,clips/clip_weißt_18_nosub_1.mp4,audios/silence.mp3,weißt,nosub,1,18,5680.0,NA,12000,Wie wirken die Personen?,überrascht,wütend,verzweifelt,gelangweilt,None,,,,,,,,,,,,,0,2,2,7,,,,,63.64509350000026,,,,,,,,,,,,,,,,,,clip_weißt_18_nosub_1,clips/clip_weißt_18_nosub_1.mp4,audios/silence.mp3,visual,nosub,False,63.639949200000046,63.64509350000026,64.0306429000002,64.23056919999999,64.23056919999999,64.23139406666702,76.49397960000033,76.25019689999999,[7.118122699999731],76.35490370000025,76.3549452000002,None,65.48226049999994,,,,,,,,,,,,,,,,,,,,,,,,,,,,,,,,,,,,,,,,,,315,001,2026-03-31_14h58.11.568,exp_sofc,,2025.2.3,60.564289598979194,2026-03-31 14h58.12.469611 +0200,
,3,3,0,,,,clip_hund_26_sub_1,clips/clip_hund_26_sub_1.mp4,audios/silence.mp3,hund,sub,0,26,NA,NA,9333,Wie wirkt die Frau?,amüsiert,hasserfüllt,traurig,ängstlich,None,,,,,,,,,,,,,0,3,3,3,,,,,76.49397960000033,,,,,,,,,,,,,,,,,,clip_hund_02_sub_1,clips/clip_hund_02_sub_1.mp4,audios/clip_hund_02_sub_1.mp3,audiovisual,sub,False,76.48880270000018,76.49397960000033,76.8586736000002,77.0586816,77.0586816,77.05905476666682,87.22466239999994,86.99190820000013,[9.358421500000077],87.09776469999997,87.09780140000021,None,86.99047340000016,,,,,,,,,,,,,,,,,,,,,,,,,,,,,,,,,,,,,,,,,,315,001,2026-03-31_14h58.11.568,exp_sofc,,2025.2.3,60.564289598979194,2026-03-31 14h58.12.469611 +0200,
,4,4,0,,,,clip_hund_25_sub_1,clips/clip_hund_25_sub_1.mp4,audios/silence.mp3,hund,sub,1,25,5466.0,NA,8300,Mit was essen die Personen?,mit ihren Händen,mit Messer und Gabel,mit Stäbchen,mit einem Löffel,None,,,,,,,,,,,,,0,4,4,11,,,,,87.22466239999994,,,,,,,,,,,,,,,,,,clip_wurst_09_sub_1,clips/clip_wurst_09_sub_1.mp4,audios/clip_wurst_09_sub_1.mp3,audiovisual,sub,False,87.21883920000028,87.22466239999994,87.6104749000001,87.81140929999992,87.81140929999992,87.80991936666693,99.32679970000027,99.09395410000025,[],99.19995960000006,99.20000470000014,None,,,,,,,,,,,,,,,,,,,,,,,,,,,,,,,,,,,,,,,,,,,315,001,2026-03-31_14h58.11.568,exp_sofc,,2025.2.3,60.564289598979194,2026-03-31 14h58.12.469611 +0200,
,5,5,0,,,,clip_weißt_21_nosub_0,clips/clip_weißt_21_nosub_0.mp4,audios/silence.mp3,weißt,nosub,0,21,NA,NA,10080,Wo stehen die Personen?,am Balkongeländer,am Strand,an einer Bushaltestelle,im Wald,3,20.67453400000022,None,,,,,,,,,,,0,5,5,1,,,,,99.32679970000027,,,,,,,,,,,,,,,,,,clip_hund_31_sub_0,clips/clip_hund_31_sub_0.mp4,audios/silence.mp3,visual,sub,True,99.3221209000003,99.32679970000027,99.71404280000024,99.92840569999998,99.91182849999996,99.91282066666669,108.48968490000016,108.37656779999998,[0.2490162999997665],108.48578980000002,129.17308170000024,3,101.16355079999994,3,108.48968490000016,108.48968490000016,108.48968490000016,20.67453400000022,None,,,,,,,,,,,,,,,,,,,,,,,,,,,,,,,,,,,,315,001,2026-03-31_14h58.11.568,exp_sofc,,2025.2.3,60.564289598979194,2026-03-31 14h58.12.469611 +0200,
,6,6,0,,,,clip_weißt_05_sub_0,clips/clip_weißt_05_sub_0.mp4,audios/clip_weißt_05_sub_0.mp3,weißt,sub,0,5,NA,NA,9767,Wer trägt die Leiter?,die Frau,der Mann,beide,keiner,3,5.353132299999743,None,,,,,,,,,,,0,6,6,0,,,,,129.28673590000017,,,,,,,,,,,,,,,,,,clip_weißt_09_sub_1,clips/clip_weißt_09_sub_1.mp4,audios/silence.mp3,visual,sub,True,129.28102960000024,129.28673590000017,129.6882072000003,129.88842920000025,129.88842920000025,129.88865016666685,139.0247142000003,138.92081710000002,[6.236902699999973],139.02115550000008,144.3860767000001,3,131.14019009999993,4,139.0247142000003,139.0247142000003,139.0247142000003,5.353132299999743,None,,,,,,,,,,,,,,,,,,,,,,,,,,,,,,,,,,,,315,001,2026-03-31_14h58.11.568,exp_sofc,,2025.2.3,60.564289598979194,2026-03-31 14h58.12.469611 +0200,
,7,7,0,,,,clip_hund_31_sub_0,clips/clip_hund_31_sub_0.mp4,audios/silence.mp3,hund,sub,1,31,1966.0,NA,8433,Welche Tageszeit ist es?,abends,morgens,mittags,nachts,2,3.9211270000000695,None,,,,,,,,,,,0,7,7,9,,,,,144.51623770000015,,,,,,,,,,,,,,,,,,clip_hund_26_sub_1,clips/clip_hund_26_sub_1.mp4,audios/silence.mp3,visual,sub,True,144.51111370000035,144.51623770000015,144.88663700000006,145.08726920000026,145.08726920000026,145.08748256666675,154.56625630000008,154.45314929999995,[],154.56300910000027,158.4900944000001,2,146.33925219999992,2,154.56625630000008,154.56625630000008,154.56625630000008,3.9211270000000695,None,,,,,,,,,,,,,,,,,,,,,,,,,,,,,,,,,,,,315,001,2026-03-31_14h58.11.568,exp_sofc,,2025.2.3,60.564289598979194,2026-03-31 14h58.12.469611 +0200,
,8,8,0,,,,clip_hund_02_sub_1,clips/clip_hund_02_sub_1.mp4,audios/clip_hund_02_sub_1.mp3,hund,sub,1,2,8300.0,NA,9900,Welche Farbe hat der Pullover der Frau?,grün,schwarz,blau,rot,None,,,,,,,,,,,,,0,8,8,8,,,,,158.63751850000017,,,,,,,,,,,,,,,,,,clip_hund_28_nosub_0,clips/clip_hund_28_nosub_0.mp4,audios/clip_hund_28_nosub_0.mp3,audiovisual,nosub,False,158.63278470000023,158.63751850000017,158.9997601,159.1996422000002,159.1996422000002,159.19982996666684,169.28783340000018,169.06458030000022,[],169.1610622000003,169.16109510000024,None,169.28783340000018,,,,,,,,,,,,,,,,,,,,,,,,,,,,,,,,,,,,,,,,,,315,001,2026-03-31_14h58.11.568,exp_sofc,,2025.2.3,60.564289598979194,2026-03-31 14h58.12.469611 +0200,
,9,9,0,,,,clip_hund_28_nosub_0,clips/clip_hund_28_nosub_0.mp4,audios/clip_hund_28_nosub_0.mp3,hund,nosub,0,28,NA,NA,9840,Was steht auf dem Tisch vor den Personen?,Weinflasche mit Gläsern,Wasser,Bier,Kaffee,1,4.575402699999813,None,,,,,,,,,,,0,9,9,4,,,,,169.28783340000018,,,,,,,,,,,,,,,,,,clip_hund_25_sub_1,clips/clip_hund_25_sub_1.mp4,audios/silence.mp3,visual,sub,True,169.28395640000008,169.28783340000018,169.6659010000003,169.86625760000015,169.86625760000015,169.8660313666667,178.30443659999992,178.18381120000004,"[0.35981630000014775, 7.102495699999963]",178.30118360000006,182.89017110000032,1,171.12166500000012,1,178.30443659999992,178.30443659999992,178.30443659999992,4.575402699999813,None,,,,,,,,,,,,,,,,,,,,,,,,,,,,,,,,,,,,315,001,2026-03-31_14h58.11.568,exp_sofc,,2025.2.3,60.564289598979194,2026-03-31 14h58.12.469611 +0200,
,10,10,0,,,,clip_weißt_09_sub_1,clips/clip_weißt_09_sub_1.mp4,audios/silence.mp3,weißt,sub,1,9,4866.0,NA,9000,Was macht die Frau?,sie wickelt ein Band auf,sie näht,sie strickt,sie faltet Wäsche,None,,,,,,,,,,,,,0,10,10,5,,,,,183.00801880000017,,,,,,,,,,,,,,,,,,clip_weißt_21_nosub_0,clips/clip_weißt_21_nosub_0.mp4,audios/silence.mp3,visual,nosub,False,183.00165190000007,183.00801880000017,183.39120219999995,183.59111530000018,183.59111530000018,183.59162626666674,193.9149821000001,193.6904701000003,[],193.801375,193.8014075000001,None,184.84287889999996,,,,,,,,,,,,,,,,,,,,,,,,,,,,,,,,,,,,,,,,,,315,001,2026-03-31_14h58.11.568,exp_sofc,,2025.2.3,60.564289598979194,2026-03-31 14h58.12.469611 +0200,
,11,11,0,,,,clip_hund_06_nosub_0,clips/clip_hund_06_nosub_0.mp4,audios/clip_hund_06_nosub_0.mp3,hund,nosub,0,6,NA,NA,10860,Wie sieht das Studio aus?,unaufgeräumt,sehr ordentlich,komplett leer,stark überfüllt,None,,,,,,,,,,,,,0,11,11,2,,,,,193.9149821000001,,,,,,,,,,,,,,,,,,clip_weißt_05_sub_0,clips/clip_weißt_05_sub_0.mp4,audios/clip_weißt_05_sub_0.mp3,audiovisual,sub,False,193.9109037000003,193.9149821000001,194.3083813000003,194.50884290000022,194.50884290000022,194.5076549666667,204.41991899999994,204.3133699,[],204.41410590000032,204.4141426000001,None,204.41991899999994,,,,,,,,,,,,,,,,,,,,,,,,,,,,,,,,,,,,,,,,,,315,001,2026-03-31_14h58.11.568,exp_sofc,,2025.2.3,60.564289598979194,2026-03-31 14h58.12.469611 +0200,
,,,,,,,,,,,,,,,,,,,,,,,,,,,,,,,,,,,,,,,,,,,,,,,,,,,,,,,,,,,,,,,,,,,,,,,,,,,,,,,,,,,,,,204.4142895,204.41991899999994,209.50383660000034,209.4107458000003,,,,,,,,,,,,,,,,,,,,,,,,,,,,,,,,315,001,2026-03-31_14h58.11.568,exp_sofc,,2025.2.3,60.564289598979194,2026-03-31 14h58.12.469611 +0200,
,0,0,0,,,,,,,,,,,,,,,,,,,,,,2,3.5719286999997166,None,None,,,,,,,,,,,0,0,0,0,209.50383660000034,,,,,,,,,,,,,,,,,,,,,,,,,,,,,,,,,,,,,,,,,,,,,,,clips/clip_wurst_33_sub_0.mp4,audios/silence.mp3,visual,209.5000957000002,209.9195694,210.1199001,210.1199001,210.12223026666678,211.3721832000001,219.94965060000004,219.85195820000035,[],2,219.9455095000003,219.94965060000004,219.94965060000004,219.94965060000004,223.53251390000014,2,3.5719286999997166,None,223.5325600000001,223.53258080000023,None,,,,,,,,315,001,2026-03-31_14h58.11.568,exp_sofc,,2025.2.3,60.564289598979194,2026-03-31 14h58.12.469611 +0200,
,1,0,1,,,,,,,,,,,,,,,,,,,,,,None,,,None,,,,,,,,,,,1,0,1,0,223.64319960000012,,,,,,,,,,,,,,,,,,,,,,,,,,,,,,,,,,,,,,,,,,,,,,,clips/clip_holo_03_nosub_1.mp4,audios/silence.mp3,visual,223.63716410000006,224.04259430000002,224.24317440000004,224.24317440000004,224.24286366666664,225.4948585000002,233.99747509999997,233.77447520000032,"[8.39358510000011, 9.693185199999789]",,233.8786202000001,,,,233.87865069999998,None,,,233.8786782000002,233.87869309999996,None,,,,,,,,315,001,2026-03-31_14h58.11.568,exp_sofc,,2025.2.3,60.564289598979194,2026-03-31 14h58.12.469611 +0200,
,2,0,2,,,,,,,,,,,,,,,,,,,,,,None,,,None,,,,,,,,,,,2,0,2,0,233.99747509999997,,,,,,,,,,,,,,,,,,,,,,,,,,,,,,,,,,,,,,,,,,,,,,,clips/clip_dampf_06_nosub_2.mp4,audios/clip_dampf_06_nosub_2.mp3,audiovisual,233.9937245000001,234.3921061000001,234.5929741,234.5929741,234.59307286666697,243.6250984000003,243.81761700000015,243.62527690000024,[],,243.71559509999997,,,,243.7156301,None,,,243.71566350000012,243.71567890000006,None,,,,,,,,315,001,2026-03-31_14h58.11.568,exp_sofc,,2025.2.3,60.564289598979194,2026-03-31 14h58.12.469611 +0200,
,3,0,3,,,,,,,,,,,,,,,,,,,,,,2,3.42540340000005,None,None,,,,,,,,,,,3,0,3,0,243.81761700000015,,,,,,,,,,,,,,,,,,,,,,,,,,,,,,,,,,,,,,,,,,,,,,,clips/clip_holo_19_sub_1.mp4,audios/silence.mp3,visual,243.81284110000024,244.2158311000003,244.41646400000036,244.41646400000036,244.41587116666668,245.66895109999996,254.55464100000017,254.45030769999994,[6.657463000000007],3,254.5510250000002,254.55464100000017,254.55464100000017,254.55464100000017,257.99667,2,3.42540340000005,None,257.9967343000003,257.99676290000025,None,,,,,,,,315,001,2026-03-31_14h58.11.568,exp_sofc,,2025.2.3,60.564289598979194,2026-03-31 14h58.12.469611 +0200,
,4,0,4,,,,,,,,,,,,,,,,,,,,,,None,,,None,,,,,,,,,,,4,0,4,0,258.1197715000003,,,,,,,,,,,,,,,,,,,,,,,,,,,,,,,,,,,,,,,,,,,,,,,clips/clip_wurst_18_nosub_0.mp4,audios/clip_wurst_18_nosub_0.mp3,audiovisual,258.1156369,258.4961569000002,258.69685789999994,258.69685789999994,258.6964062666668,268.7289960000003,268.91713770000024,268.7291927000001,[],,268.82282220000025,,,,268.82285520000005,None,,,268.82288289999997,268.82289790000004,None,,,,,,,,315,001,2026-03-31_14h58.11.568,exp_sofc,,2025.2.3,60.564289598979194,2026-03-31 14h58.12.469611 +0200,
,5,0,5,,,,,,,,,,,,,,,,,,,,,,None,,,None,,,,,,,,,,,5,0,5,0,268.91713770000024,,,,,,,,,,,,,,,,,,,,,,,,,,,,,,,,,,,,,,,,,,,,,,,clips/clip_claude_14_sub_0.mp4,audios/silence.mp3,visual,268.9129882000002,269.33470380000017,269.53513569999996,269.53513569999996,269.53662466666697,270.78688390000025,280.85168710000016,280.63569240000015,[8.843637200000103],,280.7244823000001,,,,280.7245184000003,None,,,280.7245548000001,280.72457540000005,None,,,,,,,,315,001,2026-03-31_14h58.11.568,exp_sofc,,2025.2.3,60.564289598979194,2026-03-31 14h58.12.469611 +0200,
,6,0,6,,,,,,,,,,,,,,,,,,,,,,None,,,None,,,,,,,,,,,6,0,6,0,280.85168710000016,,,,,,,,,,,,,,,,,,,,,,,,,,,,,,,,,,,,,,,,,,,,,,,clips/clip_claude_21_nosub_1.mp4,audios/clip_claude_21_nosub_1.mp3,audiovisual,280.84781509999993,281.23709810000037,281.43680410000024,281.43680410000024,281.436373766667,293.70597350000025,293.93004870000004,293.7061374,[9.966427099999692],,293.80670910000026,,,,293.8067470000001,None,,,293.80678220000027,293.8068039,None,,,,,,,,315,001,2026-03-31_14h58.11.568,exp_sofc,,2025.2.3,60.564289598979194,2026-03-31 14h58.12.469611 +0200,
,7,0,7,,,,,,,,,,,,,,,,,,,,,,None,,,None,,,,,,,,,,,7,0,7,0,293.93004870000004,,,,,,,,,,,,,,,,,,,,,,,,,,,,,,,,,,,,,,,,,,,,,,,clips/clip_weißt_27_sub_1.mp4,audios/clip_weißt_27_sub_1.mp3,audiovisual,293.9261741,294.3064237000003,294.5069861000002,294.5069861000002,294.5068038666666,304.60668269999996,304.8404249,304.6068843000003,[7.974000500000329],,304.70401260000017,,,,304.7040542,None,,,304.7040999000001,304.70415200000025,None,,,,,,,,315,001,2026-03-31_14h58.11.568,exp_sofc,,2025.2.3,60.564289598979194,2026-03-31 14h58.12.469611 +0200,
,8,0,8,,,,,,,,,,,,,,,,,,,,,,None,,,None,,,,,,,,,,,8,0,8,0,304.8404249,,,,,,,,,,,,,,,,,,,,,,,,,,,,,,,,,,,,,,,,,,,,,,,clips/clip_holo_08_sub_2.mp4,audios/clip_holo_08_sub_2.mp3,audiovisual,304.83653270000013,305.20788410000023,305.4089957000001,305.4089957000001,305.408120166667,,316.4303896000001,316.1919846999999,"[4.29371110000011, 9.522241000000122]",,316.3095277000002,,,,316.30956190000006,None,,,316.30959950000033,316.3096281000003,None,,,,,,,,315,001,2026-03-31_14h58.11.568,exp_sofc,,2025.2.3,60.564289598979194,2026-03-31 14h58.12.469611 +0200,
,9,0,9,,,,,,,,,,,,,,,,,,,,,,None,,,None,,,,,,,,,,,9,0,9,0,316.4303896000001,,,,,,,,,,,,,,,,,,,,,,,,,,,,,,,,,,,,,,,,,,,,,,,clips/clip_wurst_13_sub_0.mp4,audios/clip_wurst_13_sub_0.mp3,audiovisual,316.4269658000003,316.81479119999995,317.01563320000014,317.01563320000014,317.0152205666666,326.64787479999995,326.8619355999999,326.64807740000015,[],,326.7450888000003,,,,326.7451470000001,None,,,326.7452370000001,326.7452653,None,,,,,,,,315,001,2026-03-31_14h58.11.568,exp_sofc,,2025.2.3,60.564289598979194,2026-03-31 14h58.12.469611 +0200,
,10,0,10,,,,,,,,,,,,,,,,,,,,,,None,,,None,,,,,,,,,,,10,0,10,0,326.8619355999999,,,,,,,,,,,,,,,,,,,,,,,,,,,,,,,,,,,,,,,,,,,,,,,clips/clip_hund_22_nosub_1.mp4,audios/silence.mp3,visual,326.85660129999997,327.2448797000002,327.4469902999999,327.4469902999999,327.445292366667,328.69734289999997,337.7115506,337.4783228000001,"[0.278440000000046, 8.550388500000281]",,337.5696613,,,,337.56970930000034,None,,,337.5698046000002,337.5698265000001,None,,,,,,,,315,001,2026-03-31_14h58.11.568,exp_sofc,,2025.2.3,60.564289598979194,2026-03-31 14h58.12.469611 +0200,
,11,0,11,,,,,,,,,,,,,,,,,,,,,,None,,,None,,,,,,,,,,,11,0,11,0,337.7115506,,,,,,,,,,,,,,,,,,,,,,,,,,,,,,,,,,,,,,,,,,,,,,,clips/clip_claude_01_nosub_2.mp4,audios/clip_claude_01_nosub_2.mp3,audiovisual,337.70754420000003,338.0793292000003,338.2795695,338.2795695,338.27961356666697,349.47643930000004,349.47643930000004,349.24739309999995,"[6.700091300000167, 8.728162500000053]",,349.3493615000002,,,,349.3493975000001,None,,,349.34943580000026,349.34949069999993,None,,,,,,,,315,001,2026-03-31_14h58.11.568,exp_sofc,,2025.2.3,60.564289598979194,2026-03-31 14h58.12.469611 +0200,
,12,0,12,,,,,,,,,,,,,,,,,,,,,,None,,,None,,,,,,,,,,,12,0,12,0,349.47643930000004,,,,,,,,,,,,,,,,,,,,,,,,,,,,,,,,,,,,,,,,,,,,,,,clips/clip_weißt_03_sub_0.mp4,audios/clip_weißt_03_sub_0.mp3,audiovisual,349.4727631999999,349.86405319999994,350.0645794000002,350.0645794000002,350.0642770666666,362.0831859,362.30068729999994,362.08335420000003,[],,362.1917923000001,,,,362.1918294000002,None,,,362.1918668000003,362.1918863000001,None,,,,,,,,315,001,2026-03-31_14h58.11.568,exp_sofc,,2025.2.3,60.564289598979194,2026-03-31 14h58.12.469611 +0200,
,13,0,13,,,,,,,,,,,,,,,,,,,,,,2,2.6829443000001447,None,None,,,,,,,,,,,13,0,13,0,362.30068729999994,,,,,,,,,,,,,,,,,,,,,,,,,,,,,,,,,,,,,,,,,,,,,,,clips/clip_weißt_17_nosub_0.mp4,audios/silence.mp3,visual,362.2965061,362.70074190000014,362.90205860000015,362.90205860000015,362.901550766667,364.15321010000025,374.50675790000014,374.4197022000003,[],2,374.50258380000014,374.50675790000014,374.50675790000014,374.50675790000014,377.19549300000017,2,2.6829443000001447,None,377.19555400000036,377.1955790000002,None,,,,,,,,315,001,2026-03-31_14h58.11.568,exp_sofc,,2025.2.3,60.564289598979194,2026-03-31 14h58.12.469611 +0200,
,14,0,14,,,,,,,,,,,,,,,,,,,,,,2,4.212597499999902,None,None,,,,,,,,,,,14,0,14,0,377.3238918000002,,,,,,,,,,,,,,,,,,,,,,,,,,,,,,,,,,,,,,,,,,,,,,,clips/clip_hund_12_sub_1.mp4,audios/clip_hund_12_sub_1.mp3,audiovisual,377.31948660000035,377.69652670000005,377.8964837000003,377.8964837000003,377.8963610666667,389.11361460000035,389.2167545000002,389.1138592000002,[10.023493300000155],2,389.2136204000003,389.2167545000002,389.2167545000002,389.2167545000002,393.44541449999997,2,4.212597499999902,None,393.44546200000013,393.44548090000035,None,,,,,,,,315,001,2026-03-31_14h58.11.568,exp_sofc,,2025.2.3,60.564289598979194,2026-03-31 14h58.12.469611 +0200,
,15,0,15,,,,,,,,,,,,,,,,,,,,,,None,,,None,,,,,,,,,,,15,0,15,0,393.55663410000034,,,,,,,,,,,,,,,,,,,,,,,,,,,,,,,,,,,,,,,,,,,,,,,clips/clip_weißt_07_nosub_1.mp4,audios/silence.mp3,visual,393.5515644000002,393.9567548,394.1573257,394.1573257,394.1572418666667,395.4093157000002,404.10057350000034,403.88889229999995,[],,403.98361840000007,,,,403.9836497000001,None,,,403.9836771,403.9836928,None,,,,,,,,315,001,2026-03-31_14h58.11.568,exp_sofc,,2025.2.3,60.564289598979194,2026-03-31 14h58.12.469611 +0200,
,16,0,16,,,,,,,,,,,,,,,,,,,,,,None,,,None,,,,,,,,,,,16,0,16,0,404.10057350000034,,,,,,,,,,,,,,,,,,,,,,,,,,,,,,,,,,,,,,,,,,,,,,,clips/clip_claude_20_sub_1.mp4,audios/silence.mp3,visual,404.0950780000003,404.4836101000001,404.68419919999997,404.68419919999997,404.68369196666686,405.93566180000016,416.90804700000035,416.70233720000033,[6.587229200000365],,416.80315010000004,,,,416.80319690000033,None,,,416.80324040000005,416.8032640000001,None,,,,,,,,315,001,2026-03-31_14h58.11.568,exp_sofc,,2025.2.3,60.564289598979194,2026-03-31 14h58.12.469611 +0200,
,17,0,17,,,,,,,,,,,,,,,,,,,,,,None,,,None,,,,,,,,,,,17,0,17,0,416.90804700000035,,,,,,,,,,,,,,,,,,,,,,,,,,,,,,,,,,,,,,,,,,,,,,,clips/clip_holo_02_sub_2.mp4,audios/silence.mp3,visual,416.9043611000002,417.31234280000035,417.5123291,417.5123291,417.512240766667,418.76501989999997,428.9121960000002,428.6978216000002,[8.166274799999883],,428.7977847000002,,,,428.7978290000001,None,,,428.79790249999996,428.7979327000003,None,,,,,,,,315,001,2026-03-31_14h58.11.568,exp_sofc,,2025.2.3,60.564289598979194,2026-03-31 14h58.12.469611 +0200,
,18,0,18,,,,,,,,,,,,,,,,,,,,,,3,5.106545800000276,None,None,,,,,,,,,,,18,0,18,0,428.9121960000002,,,,,,,,,,,,,,,,,,,,,,,,,,,,,,,,,,,,,,,,,,,,,,,clips/clip_claude_23_nosub_0.mp4,audios/clip_claude_23_nosub_0.mp3,audiovisual,428.90883310000027,429.31328870000016,429.51472590000003,429.4983956000001,429.49849126666663,441.76155080000035,441.76155080000035,441.65095710000014,[],2,441.75821300000007,441.76155080000035,441.76155080000035,441.76155080000035,446.8709586,3,5.106545800000276,None,446.8710097000003,446.8710288000002,None,,,,,,,,315,001,2026-03-31_14h58.11.568,exp_sofc,,2025.2.3,60.564289598979194,2026-03-31 14h58.12.469611 +0200,
,19,0,19,,,,,,,,,,,,,,,,,,,,,,None,,,None,,,,,,,,,,,19,0,19,0,446.9908352000002,,,,,,,,,,,,,,,,,,,,,,,,,,,,,,,,,,,,,,,,,,,,,,,clips/clip_wurst_14_nosub_1.mp4,audios/silence.mp3,visual,446.98462870000003,447.3717098000002,447.57366660000025,447.57366660000025,447.5720673666667,448.8244791000002,457.8242144000001,457.6037795000002,[7.656837400000313],,457.7009028000002,,,,457.7009366000002,None,,,457.7009674000001,457.70098310000003,None,,,,,,,,315,001,2026-03-31_14h58.11.568,exp_sofc,,2025.2.3,60.564289598979194,2026-03-31 14h58.12.469611 +0200,
,20,0,20,,,,,,,,,,,,,,,,,,,,,,None,,,None,,,,,,,,,,,20,0,20,0,457.8242144000001,,,,,,,,,,,,,,,,,,,,,,,,,,,,,,,,,,,,,,,,,,,,,,,clips/clip_wurst_28_nosub_1.mp4,audios/clip_wurst_28_nosub_1.mp3,audiovisual,457.8205796000002,458.2046098999999,458.40523669999993,458.40523669999993,458.4053961666666,468.7209845000002,468.9139610000002,468.72116700000015,[],,468.8116417000001,,,,468.81169230000023,None,,,468.8117406000001,468.81176570000025,None,,,,,,,,315,001,2026-03-31_14h58.11.568,exp_sofc,,2025.2.3,60.564289598979194,2026-03-31 14h58.12.469611 +0200,
,21,0,21,,,,,,,,,,,,,,,,,,,,,,None,,,None,,,,,,,,,,,21,0,21,0,468.9139610000002,,,,,,,,,,,,,,,,,,,,,,,,,,,,,,,,,,,,,,,,,,,,,,,clips/clip_hund_18_nosub_1.mp4,audios/silence.mp3,visual,468.90879870000026,469.31367960000034,469.51436809999996,469.51436809999996,469.5139396666666,470.7658882999999,479.76408630000014,479.5471743000003,[6.875677800000176],,479.64460770000005,,,,479.64464780000026,None,,,479.64468780000016,479.6447108000002,None,,,,,,,,315,001,2026-03-31_14h58.11.568,exp_sofc,,2025.2.3,60.564289598979194,2026-03-31 14h58.12.469611 +0200,
,22,0,22,,,,,,,,,,,,,,,,,,,,,,None,,,None,,,,,,,,,,,22,0,22,0,479.76408630000014,,,,,,,,,,,,,,,,,,,,,,,,,,,,,,,,,,,,,,,,,,,,,,,clips/clip_wurst_06_nosub_2.mp4,audios/clip_wurst_06_nosub_2.mp3,audiovisual,479.760311,480.14717010000004,480.34779290000006,480.34779290000006,480.3473582666668,491.6663659999999,491.6663659999999,491.44803060000004,"[2.906767200000104, 8.228444800000034]",,491.54252650000035,,,,491.54255850000027,None,,,491.5425914000002,491.54261110000016,None,,,,,,,,315,001,2026-03-31_14h58.11.568,exp_sofc,,2025.2.3,60.564289598979194,2026-03-31 14h58.12.469611 +0200,
,23,0,23,,,,,,,,,,,,,,,,,,,,,,None,,,None,,,,,,,,,,,23,0,23,0,491.6663659999999,,,,,,,,,,,,,,,,,,,,,,,,,,,,,,,,,,,,,,,,,,,,,,,clips/clip_hund_01_sub_0.mp4,audios/clip_hund_01_sub_0.mp3,audiovisual,491.6625973,492.04956630000015,492.2495368,492.2495368,492.2496726666666,503.25804510000034,503.25804510000034,503.05451360000006,[],,503.1508666,,,,503.1509704,None,,,503.15101890000005,503.1510465000001,None,,,,,,,,315,001,2026-03-31_14h58.11.568,exp_sofc,,2025.2.3,60.564289598979194,2026-03-31 14h58.12.469611 +0200,
,24,0,24,,,,,,,,,,,,,,,,,,,,,,None,,,None,,,,,,,,,,,24,0,24,0,503.25804510000034,,,,,,,,,,,,,,,,,,,,,,,,,,,,,,,,,,,,,,,,,,,,,,,clips/clip_holo_24_sub_2.mp4,audios/silence.mp3,visual,503.253772,503.65895649999993,503.8593571000001,503.8593571000001,503.85892616666683,505.1122682,513.9129505000001,513.6909677000003,"[6.962469900000087, 10.055412900000192]",,513.7841262000002,,,,513.7841653,None,,,513.7842082000002,513.7842285000002,None,,,,,,,,315,001,2026-03-31_14h58.11.568,exp_sofc,,2025.2.3,60.564289598979194,2026-03-31 14h58.12.469611 +0200,
,25,0,25,,,,,,,,,,,,,,,,,,,,,,None,,,None,,,,,,,,,,,25,0,25,0,513.9129505000001,,,,,,,,,,,,,,,,,,,,,,,,,,,,,,,,,,,,,,,,,,,,,,,clips/clip_claude_13_nosub_0.mp4,audios/clip_claude_13_nosub_0.mp3,audiovisual,513.9092586000002,514.2926871,514.4926316000001,514.4926316000001,514.4925738666668,523.7238511,523.9435691000003,523.7240166000001,[],,523.8201900000004,,,,523.8202272000003,None,,,523.8202612,523.8202820000001,None,,,,,,,,315,001,2026-03-31_14h58.11.568,exp_sofc,,2025.2.3,60.564289598979194,2026-03-31 14h58.12.469611 +0200,
,26,0,26,,,,,,,,,,,,,,,,,,,,,,None,,,None,,,,,,,,,,,26,0,26,0,523.9435691000003,,,,,,,,,,,,,,,,,,,,,,,,,,,,,,,,,,,,,,,,,,,,,,,clips/clip_hund_14_sub_2.mp4,audios/clip_hund_14_sub_2.mp3,audiovisual,523.9401032999999,524.3239967,524.5246919000001,524.5246919000001,524.5248531666668,,534.6290144,534.4256649000004,[5.779581400000097],,534.5224753000002,,,,534.5225165000002,None,,,534.5225587,534.5225796,None,,,,,,,,315,001,2026-03-31_14h58.11.568,exp_sofc,,2025.2.3,60.564289598979194,2026-03-31 14h58.12.469611 +0200,
,27,0,27,,,,,,,,,,,,,,,,,,,,,,None,,,None,,,,,,,,,,,27,0,27,0,534.6290144,,,,,,,,,,,,,,,,,,,,,,,,,,,,,,,,,,,,,,,,,,,,,,,clips/clip_weißt_12_nosub_1.mp4,audios/silence.mp3,visual,534.6258729000001,535.0325876000002,535.2332795000002,535.2332795000002,535.2332329666667,536.4847196000001,547.3344741999999,547.1519306,[9.080901499999982],,547.2351686000002,,,,547.2352495,None,,,547.2353055000003,547.2353330999999,None,,,,,,,,315,001,2026-03-31_14h58.11.568,exp_sofc,,2025.2.3,60.564289598979194,2026-03-31 14h58.12.469611 +0200,
,28,0,28,,,,,,,,,,,,,,,,,,,,,,None,,,None,,,,,,,,,,,28,0,28,0,547.3344741999999,,,,,,,,,,,,,,,,,,,,,,,,,,,,,,,,,,,,,,,,,,,,,,,clips/clip_hund_27_sub_1.mp4,audios/silence.mp3,visual,547.3310338000001,547.7364637000001,547.9363976,547.9363976,547.9367725666668,549.1891028,558.3724368000003,558.1700296000004,[4.541498600000068],,558.2749591000002,,,,558.2749976,None,,,558.2750388,558.2750720000004,None,,,,,,,,315,001,2026-03-31_14h58.11.568,exp_sofc,,2025.2.3,60.564289598979194,2026-03-31 14h58.12.469611 +0200,
,29,0,29,,,,,,,,,,,,,,,,,,,,,,None,,,None,,,,,,,,,,,29,0,29,0,558.3724368000003,,,,,,,,,,,,,,,,,,,,,,,,,,,,,,,,,,,,,,,,,,,,,,,clips/clip_lied_04_sub_0.mp4,audios/silence.mp3,visual,558.3688587000001,558.7778072000001,558.9784413000002,558.9784413000002,558.9779205666666,560.2317317000002,570.1430394000004,569.9622202,[],,570.0415582,,,,570.0416416000003,None,,,570.0417027000003,570.0417307000002,None,,,,,,,,315,001,2026-03-31_14h58.11.568,exp_sofc,,2025.2.3,60.564289598979194,2026-03-31 14h58.12.469611 +0200,
,30,0,30,,,,,,,,,,,,,,,,,,,,,,None,,,None,,,,,,,,,,,30,0,30,0,570.1430394000004,,,,,,,,,,,,,,,,,,,,,,,,,,,,,,,,,,,,,,,,,,,,,,,clips/clip_claude_09_sub_2.mp4,audios/silence.mp3,visual,570.1378293000002,570.5468306000002,570.7468120000003,570.7468120000003,570.7463811666669,571.9984136000003,581.1941219,580.9791850000001,"[4.165449200000239, 8.73024200000009]",,581.0700452000001,,,,581.0700894000001,None,,,581.0701526000003,581.0702019,None,,,,,,,,315,001,2026-03-31_14h58.11.568,exp_sofc,,2025.2.3,60.564289598979194,2026-03-31 14h58.12.469611 +0200,
,31,0,31,,,,,,,,,,,,,,,,,,,,,,None,,,None,,,,,,,,,,,31,0,31,0,581.1941219,,,,,,,,,,,,,,,,,,,,,,,,,,,,,,,,,,,,,,,,,,,,,,,clips/clip_dampf_02_nosub_1.mp4,audios/clip_dampf_02_nosub_1.mp3,audiovisual,581.1907934000001,581.5785540000002,581.779297,581.779297,581.7789340666666,591.3129000000004,591.3129000000004,591.110361,[4.810504099999889],,591.2115629,,,,591.2115959000002,None,,,591.2116297000002,591.2116475000003,None,,,,,,,,315,001,2026-03-31_14h58.11.568,exp_sofc,,2025.2.3,60.564289598979194,2026-03-31 14h58.12.469611 +0200,
,32,0,32,,,,,,,,,,,,,,,,,,,,,,None,,,None,,,,,,,,,,,32,0,32,0,591.3129000000004,,,,,,,,,,,,,,,,,,,,,,,,,,,,,,,,,,,,,,,,,,,,,,,clips/clip_weißt_11_nosub_0.mp4,audios/silence.mp3,visual,591.3095394000002,591.7192552000001,591.9197977000003,591.9197977000003,591.9197554666669,593.1718110000002,602.1564006000003,601.9522125000003,[],,602.0435408000003,,,,602.0436002000001,None,,,602.0436336000002,602.0436509000001,None,,,,,,,,315,001,2026-03-31_14h58.11.568,exp_sofc,,2025.2.3,60.564289598979194,2026-03-31 14h58.12.469611 +0200,
,33,0,33,,,,,,,,,,,,,,,,,,,,,,None,,,None,,,,,,,,,,,33,0,33,0,602.1564006000003,,,,,,,,,,,,,,,,,,,,,,,,,,,,,,,,,,,,,,,,,,,,,,,clips/clip_lied_08_nosub_1.mp4,audios/clip_lied_08_nosub_1.mp3,audiovisual,602.1525873,602.5443309000002,602.7451948000003,602.7451948000003,602.7448333666669,,612.0600139000003,611.8466560000002,[7.483388499999819],,611.937617,,,,611.9376496,None,,,611.9376821000001,611.9377048000001,None,,,,,,,,315,001,2026-03-31_14h58.11.568,exp_sofc,,2025.2.3,60.564289598979194,2026-03-31 14h58.12.469611 +0200,
,34,0,34,,,,,,,,,,,,,,,,,,,,,,None,,,None,,,,,,,,,,,34,0,34,0,612.0600139000003,,,,,,,,,,,,,,,,,,,,,,,,,,,,,,,,,,,,,,,,,,,,,,,clips/clip_holo_07_nosub_0.mp4,audios/clip_holo_07_nosub_0.mp3,audiovisual,612.0565745000004,612.4432903000002,612.6442703000002,612.6442703000002,612.6441344666666,,622.2404116000002,622.0473245000003,[],,622.1416432000001,,,,622.1416804,None,,,622.1417140000003,622.1417369000001,None,,,,,,,,315,001,2026-03-31_14h58.11.568,exp_sofc,,2025.2.3,60.564289598979194,2026-03-31 14h58.12.469611 +0200,
,35,0,35,,,,,,,,,,,,,,,,,,,,,,None,,,None,,,,,,,,,,,35,0,35,0,622.2404116000002,,,,,,,,,,,,,,,,,,,,,,,,,,,,,,,,,,,,,,,,,,,,,,,clips/clip_holo_23_nosub_1.mp4,audios/silence.mp3,visual,622.2366016000001,622.6513196000001,622.8512341,622.8512341,622.8510655666666,624.1046372999999,633.0995986000003,632.8846550000003,[],,632.9716511000001,,,,632.9716917999999,None,,,632.9717276000001,632.9717551000003,None,,,,,,,,315,001,2026-03-31_14h58.11.568,exp_sofc,,2025.2.3,60.564289598979194,2026-03-31 14h58.12.469611 +0200,
,36,0,36,,,,,,,,,,,,,,,,,,,,,,None,,,None,,,,,,,,,,,36,0,36,0,633.0995986000003,,,,,,,,,,,,,,,,,,,,,,,,,,,,,,,,,,,,,,,,,,,,,,,clips/clip_herz_10_sub_0.mp4,audios/clip_herz_10_sub_0.mp3,audiovisual,633.0962126,633.4840051000001,633.6845400000002,633.6845400000002,633.6841258666666,643.7167365,643.9229437000004,643.7169123000003,[],,643.8002245000002,,,,643.8002686,None,,,643.8003099000002,643.8003296000002,None,,,,,,,,315,001,2026-03-31_14h58.11.568,exp_sofc,,2025.2.3,60.564289598979194,2026-03-31 14h58.12.469611 +0200,
,37,0,37,,,,,,,,,,,,,,,,,,,,,,None,,,None,,,,,,,,,,,37,0,37,0,643.9229437000004,,,,,,,,,,,,,,,,,,,,,,,,,,,,,,,,,,,,,,,,,,,,,,,clips/clip_hund_35_nosub_0.mp4,audios/clip_hund_35_nosub_0.mp3,audiovisual,643.919406,644.3098321000002,644.5097495,644.5097495,644.509218266667,654.9423599000002,655.1354571000002,654.9425398000003,[],,655.0401092000002,,,,655.0401483,None,,,655.0402296000002,655.0402658000003,None,,,,,,,,315,001,2026-03-31_14h58.11.568,exp_sofc,,2025.2.3,60.564289598979194,2026-03-31 14h58.12.469611 +0200,
,38,0,38,,,,,,,,,,,,,,,,,,,,,,None,,,None,,,,,,,,,,,38,0,38,0,655.1354571000002,,,,,,,,,,,,,,,,,,,,,,,,,,,,,,,,,,,,,,,,,,,,,,,clips/clip_claude_16_sub_1.mp4,audios/silence.mp3,visual,655.1316200000001,655.5517199000001,655.7525534000001,655.7525534000001,655.7523707666667,657.0039308,667.1325038,666.9367123000002,[8.890637900000002],,667.0291932,,,,667.0292603000003,None,,,667.0293035,667.0293288000003,None,,,,,,,,315,001,2026-03-31_14h58.11.568,exp_sofc,,2025.2.3,60.564289598979194,2026-03-31 14h58.12.469611 +0200,
,39,0,39,,,,,,,,,,,,,,,,,,,,,,None,,,None,,,,,,,,,,,39,0,39,0,667.1325038,,,,,,,,,,,,,,,,,,,,,,,,,,,,,,,,,,,,,,,,,,,,,,,clips/clip_hund_32_sub_1.mp4,audios/silence.mp3,visual,667.1273859000003,667.5285464000003,667.7289336000003,667.7289336000003,667.7287033666669,668.9810413,677.9630427000002,677.7451420000002,"[4.982042900000124, 6.937507500000265]",,677.8328549000003,,,,677.8329011000001,None,,,677.8329427000003,677.8329595,None,,,,,,,,315,001,2026-03-31_14h58.11.568,exp_sofc,,2025.2.3,60.564289598979194,2026-03-31 14h58.12.469611 +0200,
,40,0,40,,,,,,,,,,,,,,,,,,,,,,2,3.4824859999998807,None,None,,,,,,,,,,,40,0,40,0,677.9630427000002,,,,,,,,,,,,,,,,,,,,,,,,,,,,,,,,,,,,,,,,,,,,,,,clips/clip_claude_26_nosub_0.mp4,audios/clip_claude_26_nosub_0.mp3,audiovisual,677.9591193000001,678.3451628000003,678.5464668,678.5464668,678.5460470666669,689.4624968000003,689.55944,689.4626489000002,[4.0683217000000695],2,689.5557978000002,689.55944,689.55944,689.55944,693.0433467000003,2,3.4824859999998807,None,693.0434067000001,693.0434398000002,None,,,,,,,,315,001,2026-03-31_14h58.11.568,exp_sofc,,2025.2.3,60.564289598979194,2026-03-31 14h58.12.469611 +0200,
,41,0,41,,,,,,,,,,,,,,,,,,,,,,None,,,None,,,,,,,,,,,41,0,41,0,693.1660855,,,,,,,,,,,,,,,,,,,,,,,,,,,,,,,,,,,,,,,,,,,,,,,clips/clip_holo_28_nosub_0.mp4,audios/clip_holo_28_nosub_0.mp3,audiovisual,693.1619654000001,693.5438779000001,693.7446059000004,693.7446059000004,693.7443174666666,702.2741367000003,702.4970858000001,702.2743377000002,[],,702.3679260000004,,,,702.3679569000001,None,,,702.3679852,702.3680002000001,None,,,,,,,,315,001,2026-03-31_14h58.11.568,exp_sofc,,2025.2.3,60.564289598979194,2026-03-31 14h58.12.469611 +0200,
,42,0,42,,,,,,,,,,,,,,,,,,,,,,None,,,None,,,,,,,,,,,42,0,42,0,702.4970858000001,,,,,,,,,,,,,,,,,,,,,,,,,,,,,,,,,,,,,,,,,,,,,,,clips/clip_lied_22_sub_1.mp4,audios/clip_lied_22_sub_1.mp3,audiovisual,702.4934846000001,702.8755153000002,703.0754771000002,703.0754771000002,703.0755520666669,713.8091213000002,713.8091213000002,713.5920690000003,[6.087492199999815],,713.6812889000003,,,,713.6813308000001,None,,,713.6814259000002,713.6814674000002,None,,,,,,,,315,001,2026-03-31_14h58.11.568,exp_sofc,,2025.2.3,60.564289598979194,2026-03-31 14h58.12.469611 +0200,
,43,0,43,,,,,,,,,,,,,,,,,,,,,,None,,,None,,,,,,,,,,,43,0,43,0,713.8091213000002,,,,,,,,,,,,,,,,,,,,,,,,,,,,,,,,,,,,,,,,,,,,,,,clips/clip_herz_15_sub_0.mp4,audios/clip_herz_15_sub_0.mp3,audiovisual,713.8040477,714.1920981000003,714.3938936,714.3938936,714.3924689666667,726.5952597,726.5952597,726.4117840000004,"[3.327067899999747, 7.878247199999805]",,726.5025272000003,,,,726.5025608000001,None,,,726.5026171,726.5026501000002,None,,,,,,,,315,001,2026-03-31_14h58.11.568,exp_sofc,,2025.2.3,60.564289598979194,2026-03-31 14h58.12.469611 +0200,
,44,0,44,,,,,,,,,,,,,,,,,,,,,,2,3.1036927000000105,None,None,,,,,,,,,,,44,0,44,0,726.5952597,,,,,,,,,,,,,,,,,,,,,,,,,,,,,,,,,,,,,,,,,,,,,,,clips/clip_claude_04_nosub_2.mp4,audios/silence.mp3,visual,726.5910261000004,727.0129729,727.2135358,727.2135358,727.2130745666666,728.4651186000001,736.3456500000002,736.2441097999999,"[8.40547770000012, 9.722976100000324]",2,736.3419319,736.3456500000002,736.3456500000002,736.3456500000002,739.4573835000001,2,3.1036927000000105,None,739.4574437000001,739.4574703000003,None,,,,,,,,315,001,2026-03-31_14h58.11.568,exp_sofc,,2025.2.3,60.564289598979194,2026-03-31 14h58.12.469611 +0200,
,45,0,45,,,,,,,,,,,,,,,,,,,,,,None,,,None,,,,,,,,,,,45,0,45,0,739.5771897,,,,,,,,,,,,,,,,,,,,,,,,,,,,,,,,,,,,,,,,,,,,,,,clips/clip_lied_16_nosub_2.mp4,audios/clip_lied_16_nosub_2.mp3,audiovisual,739.5735739000002,739.9576896000003,740.1582905,740.1582905,740.1581010666666,,750.9487997000001,750.7611682000002,"[4.011201700000129, 6.6388458000001265]",,750.8491468000002,,,,750.8491904000002,None,,,750.8492255000001,750.8492426000003,None,,,,,,,,315,001,2026-03-31_14h58.11.568,exp_sofc,,2025.2.3,60.564289598979194,2026-03-31 14h58.12.469611 +0200,
,46,0,46,,,,,,,,,,,,,,,,,,,,,,None,,,None,,,,,,,,,,,46,0,46,0,750.9487997000001,,,,,,,,,,,,,,,,,,,,,,,,,,,,,,,,,,,,,,,,,,,,,,,clips/clip_hund_19_sub_0.mp4,audios/silence.mp3,visual,750.9452518000003,751.3506874,751.5510171000001,751.5510171000001,751.5510966666668,752.8024393000001,763.1116605000002,762.9181435,[],,763.0049106000001,,,,763.0049736999999,None,,,763.0050201000004,763.0050371000002,None,,,,,,,,315,001,2026-03-31_14h58.11.568,exp_sofc,,2025.2.3,60.564289598979194,2026-03-31 14h58.12.469611 +0200,
,47,0,47,,,,,,,,,,,,,,,,,,,,,,None,,,None,,,,,,,,,,,47,0,47,0,763.1116605000002,,,,,,,,,,,,,,,,,,,,,,,,,,,,,,,,,,,,,,,,,,,,,,,clips/clip_claude_08_nosub_0.mp4,audios/silence.mp3,visual,763.1061447000002,763.5109780000003,763.7113422000002,763.7113422000002,763.7108550666669,764.9650728000001,773.5355377999999,773.3430031000003,[],,773.4246971000002,,,,773.4247404000002,None,,,773.4248170999999,773.4248456,None,,,,,,,,315,001,2026-03-31_14h58.11.568,exp_sofc,,2025.2.3,60.564289598979194,2026-03-31 14h58.12.469611 +0200,
,48,0,48,,,,,,,,,,,,,,,,,,,,,,None,,,None,,,,,,,,,,,48,0,48,0,773.5355377999999,,,,,,,,,,,,,,,,,,,,,,,,,,,,,,,,,,,,,,,,,,,,,,,clips/clip_weißt_28_nosub_1.mp4,audios/clip_weißt_28_nosub_1.mp3,audiovisual,773.5322349000003,773.9354450999999,774.1357625,774.1357625,774.1359855666667,784.2177663000002,784.3976685000002,784.2179501,[6.874739599999884],,784.3079634000001,,,,784.3080389000002,None,,,784.3081009000002,784.3081563999999,None,,,,,,,,315,001,2026-03-31_14h58.11.568,exp_sofc,,2025.2.3,60.564289598979194,2026-03-31 14h58.12.469611 +0200,
,49,0,49,,,,,,,,,,,,,,,,,,,,,,4,4.770975599999929,None,None,,,,,,,,,,,49,0,49,0,784.3976685000002,,,,,,,,,,,,,,,,,,,,,,,,,,,,,,,,,,,,,,,,,,,,,,,clips/clip_wurst_26_nosub_1.mp4,audios/silence.mp3,visual,784.3933829000002,784.8189234000001,785.0195805000003,785.0195805000003,785.0190978666667,786.2710878000003,797.1353872,797.0387126,[10.130821400000059],4,797.1316441000004,797.1353872,797.1353872,797.1353872,801.9206617,4,4.770975599999929,None,801.9207089000001,801.920728,None,,,,,,,,315,001,2026-03-31_14h58.11.568,exp_sofc,,2025.2.3,60.564289598979194,2026-03-31 14h58.12.469611 +0200,
,50,0,50,,,,,,,,,,,,,,,,,,,,,,None,,,None,,,,,,,,,,,50,0,50,0,802.0562316,,,,,,,,,,,,,,,,,,,,,,,,,,,,,,,,,,,,,,,,,,,,,,,clips/clip_weißt_25_nosub_1.mp4,audios/clip_weißt_25_nosub_1.mp3,audiovisual,802.0514673000002,802.4233611,802.6252903,802.6252903,802.6237164666666,814.6420549,814.8399020000002,814.6422106,[4.975978999999825],,814.7280787,,,,814.7281095000003,None,,,814.7281357000002,814.7281507000002,None,,,,,,,,315,001,2026-03-31_14h58.11.568,exp_sofc,,2025.2.3,60.564289598979194,2026-03-31 14h58.12.469611 +0200,
,51,0,51,,,,,,,,,,,,,,,,,,,,,,None,,,None,,,,,,,,,,,51,0,51,0,814.8399020000002,,,,,,,,,,,,,,,,,,,,,,,,,,,,,,,,,,,,,,,,,,,,,,,clips/clip_holo_15_sub_0.mp4,audios/clip_holo_15_sub_0.mp3,audiovisual,814.8367743000003,815.2348933000003,815.4354624000002,815.4354624000002,815.4350553666666,,824.8159657000001,824.6329615,[6.110768500000177],,824.718754,,,,824.7187945000001,None,,,824.7188389000003,824.7188970000002,None,,,,,,,,315,001,2026-03-31_14h58.11.568,exp_sofc,,2025.2.3,60.564289598979194,2026-03-31 14h58.12.469611 +0200,
,52,0,52,,,,,,,,,,,,,,,,,,,,,,None,,,None,,,,,,,,,,,52,0,52,0,824.8159657000001,,,,,,,,,,,,,,,,,,,,,,,,,,,,,,,,,,,,,,,,,,,,,,,clips/clip_weißt_06_sub_0.mp4,audios/silence.mp3,visual,824.8106821000001,825.2335921000004,825.4344552000002,825.4344552000002,825.4338367666667,826.6868138,835.9577254999999,835.7512706000002,[5.735668899999837],,835.8493643000002,,,,835.8494039000002,None,,,835.8494493000003,835.8494792000001,None,,,,,,,,315,001,2026-03-31_14h58.11.568,exp_sofc,,2025.2.3,60.564289598979194,2026-03-31 14h58.12.469611 +0200,
,53,0,53,,,,,,,,,,,,,,,,,,,,,,None,,,None,,,,,,,,,,,53,0,53,0,835.9577254999999,,,,,,,,,,,,,,,,,,,,,,,,,,,,,,,,,,,,,,,,,,,,,,,clips/clip_holo_05_nosub_2.mp4,audios/silence.mp3,visual,835.9546494000001,836.3593512000002,836.5599678000003,836.5599678000003,836.5600001666669,837.8125006,845.8713839000002,845.6905570000004,[6.930908499999987],,845.7820380000003,,,,845.7820782000003,None,,,845.7821621000003,845.7821806000002,None,,,,,,,,315,001,2026-03-31_14h58.11.568,exp_sofc,,2025.2.3,60.564289598979194,2026-03-31 14h58.12.469611 +0200,
,54,0,54,,,,,,,,,,,,,,,,,,,,,,None,,,None,,,,,,,,,,,54,0,54,0,845.8713839000002,,,,,,,,,,,,,,,,,,,,,,,,,,,,,,,,,,,,,,,,,,,,,,,clips/clip_lied_09_sub_1.mp4,audios/silence.mp3,visual,845.8666290000001,846.292351,846.4929977000002,846.4929977000002,846.4924120666667,847.7447182999999,857.1399784,856.9260335000004,[],,857.0184623,,,,857.0185791000004,None,,,857.0186404000001,857.0186696999999,None,,,,,,,,315,001,2026-03-31_14h58.11.568,exp_sofc,,2025.2.3,60.564289598979194,2026-03-31 14h58.12.469611 +0200,
,55,0,55,,,,,,,,,,,,,,,,,,,,,,None,,,None,,,,,,,,,,,55,0,55,0,857.1399784,,,,,,,,,,,,,,,,,,,,,,,,,,,,,,,,,,,,,,,,,,,,,,,clips/clip_hund_11_sub_1.mp4,audios/clip_hund_11_sub_1.mp3,audiovisual,857.1364981000002,857.5243737000001,857.7266696000002,857.7266696000002,857.7264851666666,867.4570963000001,867.6596925000003,867.4572732000001,[6.350236599999789],,867.5417734000002,,,,867.5418128000001,None,,,867.5418567000002,867.5418786,None,,,,,,,,315,001,2026-03-31_14h58.11.568,exp_sofc,,2025.2.3,60.564289598979194,2026-03-31 14h58.12.469611 +0200,
,56,0,56,,,,,,,,,,,,,,,,,,,,,,4,22.797307400000136,None,None,,,,,,,,,,,56,0,56,0,867.6596925000003,,,,,,,,,,,,,,,,,,,,,,,,,,,,,,,,,,,,,,,,,,,,,,,clips/clip_wurst_35_nosub_0.mp4,audios/silence.mp3,visual,867.6545526,868.0492531,868.249933,868.249933,868.2493301666666,869.5014867,877.6463349,877.5487637000001,[],4,877.6426074000001,877.6463349,877.6463349,877.6463349,900.4580791000003,4,22.797307400000136,None,900.4581419000001,900.4581698000002,None,,,,,,,,315,001,2026-03-31_14h58.11.568,exp_sofc,,2025.2.3,60.564289598979194,2026-03-31 14h58.12.469611 +0200,
,57,0,57,,,,,,,,,,,,,,,,,,,,,,None,,,None,,,,,,,,,,,57,0,57,0,900.5614626000001,,,,,,,,,,,,,,,,,,,,,,,,,,,,,,,,,,,,,,,,,,,,,,,clips/clip_dampf_05_nosub_2.mp4,audios/clip_dampf_05_nosub_2.mp3,audiovisual,900.5574553000001,900.966934,901.1673785000003,901.1673785000003,901.1674069666667,,910.0673366999999,909.868943,"[3.8607081999998627, 8.666502099999889]",,909.9625277,,,,909.9625599000001,None,,,909.9625900000001,909.9626062000002,None,,,,,,,,315,001,2026-03-31_14h58.11.568,exp_sofc,,2025.2.3,60.564289598979194,2026-03-31 14h58.12.469611 +0200,
,58,0,58,,,,,,,,,,,,,,,,,,,,,,3,3.590255900000102,None,None,,,,,,,,,,,58,0,58,0,910.0673366999999,,,,,,,,,,,,,,,,,,,,,,,,,,,,,,,,,,,,,,,,,,,,,,,clips/clip_lied_10_sub_1.mp4,audios/silence.mp3,visual,910.0637240000001,910.4731411000002,910.6741533,910.6741533,910.6735677666668,911.9271825000001,922.3054884000003,922.1923896000003,[4.7240012000002025],3,922.3017212,922.3054884000003,922.3054884000003,922.3054884000003,925.9127371,3,3.590255900000102,None,925.9127956000002,925.9128203,None,,,,,,,,315,001,2026-03-31_14h58.11.568,exp_sofc,,2025.2.3,60.564289598979194,2026-03-31 14h58.12.469611 +0200,
,59,0,59,,,,,,,,,,,,,,,,,,,,,,None,,,space,4.705549499999961,None,,,,,,,,,59,0,59,0,926.0263766000003,,,,,,,,,,,,,,,,,,,,,,,,,,,,,,,,,,,,,,,,,,,,,,,clips/clip_lied_15_nosub_2.mp4,audios/clip_lied_15_nosub_2.mp3,audiovisual,926.0224327999999,926.4274697999999,926.6295494999999,926.6295494999999,926.6277891666666,,934.0731994000002,933.9569602000001,[3.1063005000000885],,934.0668058000001,,,,934.0668358000003,None,,,934.0668614000001,938.7801836000003,space,934.0731994000002,934.0731994000002,934.0731994000002,4.705549499999961,None,,,315,001,2026-03-31_14h58.11.568,exp_sofc,,2025.2.3,60.564289598979194,2026-03-31 14h58.12.469611 +0200,
,60,0,60,,,,,,,,,,,,,,,,,,,,,,None,,,None,,,,,,,,,,,60,0,60,0,938.8956572000002,,,,,,,,,,,,,,,,,,,,,,,,,,,,,,,,,,,,,,,,,,,,,,,clips/clip_hund_13_nosub_1.mp4,audios/clip_hund_13_nosub_1.mp3,audiovisual,938.891744,939.2808916000004,939.4807777999999,939.4807777999999,939.4806018666666,951.2490758000004,951.4603938,951.2492119000003,[5.693039300000237],,951.3298102000003,,,,951.3298628000002,None,,,951.3299514,951.329988,None,,,,,,,,315,001,2026-03-31_14h58.11.568,exp_sofc,,2025.2.3,60.564289598979194,2026-03-31 14h58.12.469611 +0200,
,61,0,61,,,,,,,,,,,,,,,,,,,,,,None,,,None,,,,,,,,,,,61,0,61,0,951.4603938,,,,,,,,,,,,,,,,,,,,,,,,,,,,,,,,,,,,,,,,,,,,,,,clips/clip_holo_09_nosub_2.mp4,audios/clip_holo_09_nosub_2.mp3,audiovisual,951.4566344,951.8450063,952.0451096000002,952.0451096000002,952.0449026666668,963.4964564000002,963.7063897000003,963.4966084000002,[],,963.5874334,,,,963.5874802000003,None,,,963.5875206000001,963.5875384999999,None,,,,,,,,315,001,2026-03-31_14h58.11.568,exp_sofc,,2025.2.3,60.564289598979194,2026-03-31 14h58.12.469611 +0200,
,62,0,62,,,,,,,,,,,,,,,,,,,,,,None,,,None,,,,,,,,,,,62,0,62,0,963.7063897000003,,,,,,,,,,,,,,,,,,,,,,,,,,,,,,,,,,,,,,,,,,,,,,,clips/clip_wurst_16_sub_0.mp4,audios/clip_wurst_16_sub_0.mp3,audiovisual,963.7027975999999,964.0911392000003,964.2910153000003,964.2910153000003,964.2910013666667,974.3238761000002,974.5151803000003,974.3240336000003,[],,974.4058231000004,,,,974.4058605,None,,,974.4059004999999,974.4059181000002,None,,,,,,,,315,001,2026-03-31_14h58.11.568,exp_sofc,,2025.2.3,60.564289598979194,2026-03-31 14h58.12.469611 +0200,
,63,0,63,,,,,,,,,,,,,,,,,,,,,,None,,,None,,,,,,,,,,,63,0,63,0,974.5151803000003,,,,,,,,,,,,,,,,,,,,,,,,,,,,,,,,,,,,,,,,,,,,,,,clips/clip_claude_11_nosub_0.mp4,audios/silence.mp3,visual,974.5100087000001,974.9149585,975.1157945,975.1157945,975.1153079666667,976.3680586,985.3286036,985.1476784000001,[],,985.2379804000002,,,,985.2380618000002,None,,,985.2381697000001,985.2381868000002,None,,,,,,,,315,001,2026-03-31_14h58.11.568,exp_sofc,,2025.2.3,60.564289598979194,2026-03-31 14h58.12.469611 +0200,
,64,0,64,,,,,,,,,,,,,,,,,,,,,,4,2.609789400000409,None,None,,,,,,,,,,,64,0,64,0,985.3286036,,,,,,,,,,,,,,,,,,,,,,,,,,,,,,,,,,,,,,,,,,,,,,,clips/clip_hund_36_nosub_2.mp4,audios/silence.mp3,visual,985.3242891,985.7494977000001,985.9494876000003,985.9494876000003,985.9492115666669,987.2022360000001,995.2187425000002,995.1132995000003,"[3.069611899999927, 6.083311700000195]",4,995.2152610000003,995.2187425000002,995.2187425000002,995.2187425000002,997.8429276000002,4,2.609789400000409,None,997.8429744,997.8429916,None,,,,,,,,315,001,2026-03-31_14h58.11.568,exp_sofc,,2025.2.3,60.564289598979194,2026-03-31 14h58.12.469611 +0200,
,65,0,65,,,,,,,,,,,,,,,,,,,,,,None,,,None,,,,,,,,,,,65,0,65,0,997.9638833000004,,,,,,,,,,,,,,,,,,,,,,,,,,,,,,,,,,,,,,,,,,,,,,,clips/clip_lied_02_sub_2.mp4,audios/silence.mp3,visual,997.9596232000004,998.3431490000003,998.5434765,998.5434765,998.5433523666668,999.7964629000003,1009.7539998000002,1009.5618565,"[4.015096900000117, 9.718909799999892, 11.438762300000235]",,1009.6528333000001,,,,1009.6528637000001,None,,,1009.6528916000002,1009.6529065,None,,,,,,,,315,001,2026-03-31_14h58.11.568,exp_sofc,,2025.2.3,60.564289598979194,2026-03-31 14h58.12.469611 +0200,
,66,0,66,,,,,,,,,,,,,,,,,,,,,,None,,,None,,,,,,,,,,,66,0,66,0,1009.7539998000002,,,,,,,,,,,,,,,,,,,,,,,,,,,,,,,,,,,,,,,,,,,,,,,clips/clip_wurst_03_nosub_1.mp4,audios/silence.mp3,visual,1009.7504721,1010.1534557,1010.3538231000002,1010.3538231000002,1010.3536003666666,1011.6058419000001,1022.4557355000002,1022.2722843000001,"[-0.02172049999990122, 4.281164799999715]",,1022.3591801000002,,,,1022.3592342000002,None,,,1022.3593138000001,1022.3593410000003,None,,,,,,,,315,001,2026-03-31_14h58.11.568,exp_sofc,,2025.2.3,60.564289598979194,2026-03-31 14h58.12.469611 +0200,
,67,0,67,,,,,,,,,,,,,,,,,,,,,,None,,,None,,,,,,,,,,,67,0,67,0,1022.4557355000002,,,,,,,,,,,,,,,,,,,,,,,,,,,,,,,,,,,,,,,,,,,,,,,clips/clip_hund_10_sub_0.mp4,audios/silence.mp3,visual,1022.4533524000003,1022.8740996000001,1023.0751548000003,1023.0587353000001,1023.0586292666669,1024.3103681000002,1032.767248,1032.5901342000002,[8.003088400000252],,1032.6696242000003,,,,1032.6696724000003,None,,,1032.6697152000002,1032.6697320000003,None,,,,,,,,315,001,2026-03-31_14h58.11.568,exp_sofc,,2025.2.3,60.564289598979194,2026-03-31 14h58.12.469611 +0200,
,68,0,68,,,,,,,,,,,,,,,,,,,,,,None,,,None,,,,,,,,,,,68,0,68,0,1032.767248,,,,,,,,,,,,,,,,,,,,,,,,,,,,,,,,,,,,,,,,,,,,,,,clips/clip_weißt_29_nosub_1.mp4,audios/silence.mp3,visual,1032.7643912000003,1033.1732373,1033.3742070000003,1033.3742070000003,1033.3738852666668,1034.6257574,1045.1835248000002,1044.9760125000003,[6.676187999999911],,1045.0676170000002,,,,1045.0676853,None,,,1045.0677327000003,1045.0677545000003,None,,,,,,,,315,001,2026-03-31_14h58.11.568,exp_sofc,,2025.2.3,60.564289598979194,2026-03-31 14h58.12.469611 +0200,
,69,0,69,,,,,,,,,,,,,,,,,,,,,,None,,,None,,,,,,,,,,,69,0,69,0,1045.1835248000002,,,,,,,,,,,,,,,,,,,,,,,,,,,,,,,,,,,,,,,,,,,,,,,clips/clip_holo_10_sub_1.mp4,audios/clip_holo_10_sub_1.mp3,audiovisual,1045.1794282,1045.5680941,1045.7682476,1045.7682476,1045.7679747666668,1055.7336483,1055.9646010000001,1055.7338244000002,[6.212865800000145],,1055.835223,,,,1055.8352595000001,None,,,1055.8353014,1055.8353352,None,,,,,,,,315,001,2026-03-31_14h58.11.568,exp_sofc,,2025.2.3,60.564289598979194,2026-03-31 14h58.12.469611 +0200,
,70,0,70,,,,,,,,,,,,,,,,,,,,,,2,2.994847099999788,None,None,,,,,,,,,,,70,0,70,0,1055.9646010000001,,,,,,,,,,,,,,,,,,,,,,,,,,,,,,,,,,,,,,,,,,,,,,,clips/clip_claude_15_sub_0.mp4,audios/clip_claude_15_sub_0.mp3,audiovisual,1055.9611850000001,1056.3345366000003,1056.5352749000003,1056.5352749000003,1056.5348763666668,1068.6562051,1068.6562051,1068.5538150000002,[],2,1068.6524821000003,1068.6562051,1068.6562051,1068.6562051,1071.6668096000003,2,2.994847099999788,None,1071.6668762,1071.6669065,None,,,,,,,,315,001,2026-03-31_14h58.11.568,exp_sofc,,2025.2.3,60.564289598979194,2026-03-31 14h58.12.469611 +0200,
,71,0,71,,,,,,,,,,,,,,,,,,,,,,None,,,None,,,,,,,,,,,71,0,71,0,1071.7973780000002,,,,,,,,,,,,,,,,,,,,,,,,,,,,,,,,,,,,,,,,,,,,,,,clips/clip_lied_17_nosub_2.mp4,audios/clip_lied_17_nosub_2.mp3,audiovisual,1071.7929123000004,1072.1674129000003,1072.3678204000003,1072.3678204000003,1072.3676647666668,1082.4007587,1082.6356437,1082.4009371000002,[8.35097309999992],,1082.4962777,,,,1082.4963111000002,None,,,1082.4963399000003,1082.4963545,None,,,,,,,,315,001,2026-03-31_14h58.11.568,exp_sofc,,2025.2.3,60.564289598979194,2026-03-31 14h58.12.469611 +0200,
,72,0,72,,,,,,,,,,,,,,,,,,,,,,None,,,None,,,,,,,,,,,72,0,72,0,1082.6356437,,,,,,,,,,,,,,,,,,,,,,,,,,,,,,,,,,,,,,,,,,,,,,,clips/clip_weißt_23_sub_1.mp4,audios/clip_weißt_23_sub_1.mp3,audiovisual,1082.6323363000001,1083.0036317,1083.2037723000003,1083.2037723000003,1083.2038822666666,1094.6214748000002,1094.8327098,1094.621674,[8.486916299999848],,1094.7071628000003,,,,1094.7071998000001,None,,,1094.7072374,1094.7072541000002,None,,,,,,,,315,001,2026-03-31_14h58.11.568,exp_sofc,,2025.2.3,60.564289598979194,2026-03-31 14h58.12.469611 +0200,
,73,0,73,,,,,,,,,,,,,,,,,,,,,,2,3.9606565999997656,None,None,,,,,,,,,,,73,0,73,0,1094.8327098,,,,,,,,,,,,,,,,,,,,,,,,,,,,,,,,,,,,,,,,,,,,,,,clips/clip_claude_25_sub_0.mp4,audios/clip_claude_25_sub_0.mp3,audiovisual,1094.829162,1095.2173263,1095.4178231,1095.4178231,1095.417516466667,,1105.7123144000002,1105.6188155,[],2,1105.7086093000003,1105.7123144000002,1105.7123144000002,1105.7123144000002,1109.6860664,2,3.9606565999997656,None,1109.6861482,1109.6861856,None,,,,,,,,315,001,2026-03-31_14h58.11.568,exp_sofc,,2025.2.3,60.564289598979194,2026-03-31 14h58.12.469611 +0200,
,74,0,74,,,,,,,,,,,,,,,,,,,,,,None,,,None,,,,,,,,,,,74,0,74,0,1109.7991301000002,,,,,,,,,,,,,,,,,,,,,,,,,,,,,,,,,,,,,,,,,,,,,,,clips/clip_wurst_04_nosub_2.mp4,audios/silence.mp3,visual,1109.7963366000004,1110.2017257000002,1110.401903,1110.401903,1110.4020712666668,1111.6530772,1122.2675246000003,1122.052937,"[4.208944299999985, 7.11316029999989]",,1122.1471358000003,,,,1122.1471660000002,None,,,1122.1471932,1122.1472081000002,None,,,,,,,,315,001,2026-03-31_14h58.11.568,exp_sofc,,2025.2.3,60.564289598979194,2026-03-31 14h58.12.469611 +0200,
,75,0,75,,,,,,,,,,,,,,,,,,,,,,None,,,None,,,,,,,,,,,75,0,75,0,1122.2675246000003,,,,,,,,,,,,,,,,,,,,,,,,,,,,,,,,,,,,,,,,,,,,,,,clips/clip_claude_10_sub_0.mp4,audios/clip_claude_10_sub_0.mp3,audiovisual,1122.2638712000003,1122.6528926,1122.8529451,1122.8529451,1122.852748666667,1134.2682678,1134.2682678,1134.0700178000002,[],,1134.1731965000004,,,,1134.1732306000004,None,,,1134.1732641000003,1134.1732848000001,None,,,,,,,,315,001,2026-03-31_14h58.11.568,exp_sofc,,2025.2.3,60.564289598979194,2026-03-31 14h58.12.469611 +0200,
,76,0,76,,,,,,,,,,,,,,,,,,,,,,None,,,None,,,,,,,,,,,76,0,76,0,1134.2682678,,,,,,,,,,,,,,,,,,,,,,,,,,,,,,,,,,,,,,,,,,,,,,,clips/clip_claude_03_sub_1.mp4,audios/silence.mp3,visual,1134.2635417000001,1134.6788632000003,1134.8793844000002,1134.8793844000002,1134.8792048666667,1136.1311494000001,1146.5942912,1146.3981874,[5.24647879999975],,1146.4984754000002,,,,1146.4985109,None,,,1146.4985492,1146.4985686,None,,,,,,,,315,001,2026-03-31_14h58.11.568,exp_sofc,,2025.2.3,60.564289598979194,2026-03-31 14h58.12.469611 +0200,
,77,0,77,,,,,,,,,,,,,,,,,,,,,,None,,,None,,,,,,,,,,,77,0,77,0,1146.5942912,,,,,,,,,,,,,,,,,,,,,,,,,,,,,,,,,,,,,,,,,,,,,,,clips/clip_lied_07_sub_1.mp4,audios/silence.mp3,visual,1146.5909626000002,1147.0064706000003,1147.2077855000002,1147.2077855000002,1147.2077470666666,1148.4591174000002,1156.4553362000001,1156.2375814000002,[4.685149700000238],,1156.3309858000002,,,,1156.3310246,None,,,1156.3310588,1156.3310819000003,None,,,,,,,,315,001,2026-03-31_14h58.11.568,exp_sofc,,2025.2.3,60.564289598979194,2026-03-31 14h58.12.469611 +0200,
,78,0,78,,,,,,,,,,,,,,,,,,,,,,None,,,None,,,,,,,,,,,78,0,78,0,1156.4553362000001,,,,,,,,,,,,,,,,,,,,,,,,,,,,,,,,,,,,,,,,,,,,,,,clips/clip_herz_04_sub_0.mp4,audios/clip_herz_04_sub_0.mp3,audiovisual,1156.4519307,1156.8387282000003,1157.0391322,1157.0391322,1157.0388053666668,1168.0558827,1168.2653436,1168.0560458,[7.862067200000183],,1168.1440848000002,,,,1168.1441526000003,None,,,1168.1441966000002,1168.1442643,None,,,,,,,,315,001,2026-03-31_14h58.11.568,exp_sofc,,2025.2.3,60.564289598979194,2026-03-31 14h58.12.469611 +0200,
,79,0,79,,,,,,,,,,,,,,,,,,,,,,None,,,None,,,,,,,,,,,79,0,79,0,1168.2653436,,,,,,,,,,,,,,,,,,,,,,,,,,,,,,,,,,,,,,,,,,,,,,,clips/clip_weißt_30_sub_2.mp4,audios/clip_weißt_30_sub_2.mp3,audiovisual,1168.2617479,1168.6496254000003,1168.8501241000004,1168.8501241000004,1168.8499348666667,1180.8688821,1181.072013,1180.8690582,[12.155902200000128],,1180.9543267000004,,,,1180.9543623,None,,,1180.9543948,1180.9544107000002,None,,,,,,,,315,001,2026-03-31_14h58.11.568,exp_sofc,,2025.2.3,60.564289598979194,2026-03-31 14h58.12.469611 +0200,
,80,0,80,,,,,,,,,,,,,,,,,,,,,,None,,,None,,,,,,,,,,,80,0,80,0,1181.072013,,,,,,,,,,,,,,,,,,,,,,,,,,,,,,,,,,,,,,,,,,,,,,,clips/clip_hund_34_sub_1.mp4,audios/clip_hund_34_sub_1.mp3,audiovisual,1181.0686521000002,1181.4615422000002,1181.6619891,1181.6619891,1181.6616432666667,1192.0778535,1192.2834063,1192.0780565,[],,1192.163551,,,,1192.1635849,None,,,1192.1636192,1192.1636427000003,None,,,,,,,,315,001,2026-03-31_14h58.11.568,exp_sofc,,2025.2.3,60.564289598979194,2026-03-31 14h58.12.469611 +0200,
,81,0,81,,,,,,,,,,,,,,,,,,,,,,None,,,None,,,,,,,,,,,81,0,81,0,1192.2834063,,,,,,,,,,,,,,,,,,,,,,,,,,,,,,,,,,,,,,,,,,,,,,,clips/clip_hund_16_sub_1.mp4,audios/clip_hund_16_sub_1.mp3,audiovisual,1192.2801777,1192.6709675000002,1192.8710953,1192.8710953,1192.8706689666667,,1203.919938,1203.7238278,[],,1203.8204880000003,,,,1203.8205302000001,None,,,1203.8205706000003,1203.8206031,None,,,,,,,,315,001,2026-03-31_14h58.11.568,exp_sofc,,2025.2.3,60.564289598979194,2026-03-31 14h58.12.469611 +0200,
,82,0,82,,,,,,,,,,,,,,,,,,,,,,None,,,None,,,,,,,,,,,82,0,82,0,1203.919938,,,,,,,,,,,,,,,,,,,,,,,,,,,,,,,,,,,,,,,,,,,,,,,clips/clip_hund_21_sub_1.mp4,audios/silence.mp3,visual,1203.9168836000003,1204.3306865,1204.5307972,1204.5307972,1204.5308924666667,1205.7836595000003,1214.7849911000003,1214.5637087,[8.59401039999966],,1214.6536299,,,,1214.6536666000002,None,,,1214.6537036,1214.6537241,None,,,,,,,,315,001,2026-03-31_14h58.11.568,exp_sofc,,2025.2.3,60.564289598979194,2026-03-31 14h58.12.469611 +0200,
,83,0,83,,,,,,,,,,,,,,,,,,,,,,None,,,None,,,,,,,,,,,83,0,83,0,1214.7849911000003,,,,,,,,,,,,,,,,,,,,,,,,,,,,,,,,,,,,,,,,,,,,,,,clips/clip_lied_03_nosub_1.mp4,audios/clip_lied_03_nosub_1.mp3,audiovisual,1214.7807445000003,1215.1641565,1215.3642253000003,1215.3642253000003,1215.3643222666667,1226.0690537,1226.0690537,1225.8804841,[5.484993400000349],,1225.9619697000003,,,,1225.9620042000001,None,,,1225.9620370000002,1225.9620594000003,None,,,,,,,,315,001,2026-03-31_14h58.11.568,exp_sofc,,2025.2.3,60.564289598979194,2026-03-31 14h58.12.469611 +0200,
,84,0,84,,,,,,,,,,,,,,,,,,,,,,None,,,None,,,,,,,,,,,84,0,84,0,1226.0690537,,,,,,,,,,,,,,,,,,,,,,,,,,,,,,,,,,,,,,,,,,,,,,,clips/clip_claude_18_nosub_0.mp4,audios/silence.mp3,visual,1226.0644101000003,1226.4700993000001,1226.6714435000004,1226.6714435000004,1226.6697045666667,1227.9216608000002,1235.9291589,1235.7007768000003,[],,1235.8025744000001,,,,1235.8026096000003,None,,,1235.8026452,1235.8026639,None,,,,,,,,315,001,2026-03-31_14h58.11.568,exp_sofc,,2025.2.3,60.564289598979194,2026-03-31 14h58.12.469611 +0200,
,85,0,85,,,,,,,,,,,,,,,,,,,,,,None,,,None,,,,,,,,,,,85,0,85,0,1235.9291589,,,,,,,,,,,,,,,,,,,,,,,,,,,,,,,,,,,,,,,,,,,,,,,clips/clip_hund_24_nosub_1.mp4,audios/clip_hund_24_nosub_1.mp3,audiovisual,1235.9254758000002,1236.3179535,1236.5186906000004,1236.5186906000004,1236.518758266667,1248.7474686,1248.7474686,1248.5382918,[8.011926399999993],,1248.6289257000003,,,,1248.6289749000002,None,,,1248.6290492000003,1248.6290799000003,None,,,,,,,,315,001,2026-03-31_14h58.11.568,exp_sofc,,2025.2.3,60.564289598979194,2026-03-31 14h58.12.469611 +0200,
,86,0,86,,,,,,,,,,,,,,,,,,,,,,None,,,None,,,,,,,,,,,86,0,86,0,1248.7474686,,,,,,,,,,,,,,,,,,,,,,,,,,,,,,,,,,,,,,,,,,,,,,,clips/clip_hund_17_sub_1.mp4,audios/clip_hund_17_sub_1.mp3,audiovisual,1248.7442528000001,1249.1323394,1249.3329321,1249.3329321,1249.3322962666668,,1261.8600155,1261.6351725,[10.045681399999921],,1261.7352816000002,,,,1261.7353676000002,None,,,1261.7354285000001,1261.7354497000001,None,,,,,,,,315,001,2026-03-31_14h58.11.568,exp_sofc,,2025.2.3,60.564289598979194,2026-03-31 14h58.12.469611 +0200,
,87,0,87,,,,,,,,,,,,,,,,,,,,,,None,,,None,,,,,,,,,,,87,0,87,0,1261.8600155,,,,,,,,,,,,,,,,,,,,,,,,,,,,,,,,,,,,,,,,,,,,,,,clips/clip_weißt_20_sub_1.mp4,audios/clip_weißt_20_sub_1.mp3,audiovisual,1261.8564027000002,1262.2443578000002,1262.4457078,1262.4457078,1262.4459109666666,1272.2773227000002,1272.4649246000004,1272.2774589,[7.884306900000411],,1272.3591728000001,,,,1272.3592232,None,,,1272.3592617,1272.3592905,None,,,,,,,,315,001,2026-03-31_14h58.11.568,exp_sofc,,2025.2.3,60.564289598979194,2026-03-31 14h58.12.469611 +0200,
,88,0,88,,,,,,,,,,,,,,,,,,,,,,None,,,None,,,,,,,,,,,88,0,88,0,1272.4649246000004,,,,,,,,,,,,,,,,,,,,,,,,,,,,,,,,,,,,,,,,,,,,,,,clips/clip_weißt_01_nosub_1.mp4,audios/silence.mp3,visual,1272.4596202000002,1272.8646332000003,1273.0654596,1273.0654596,1273.065055466667,1274.3179041000003,1284.2843993000001,1284.0828704,[5.856028799999876],,1284.1609877,,,,1284.1610838000001,None,,,1284.1611407,1284.1611581000002,None,,,,,,,,315,001,2026-03-31_14h58.11.568,exp_sofc,,2025.2.3,60.564289598979194,2026-03-31 14h58.12.469611 +0200,
,89,0,89,,,,,,,,,,,,,,,,,,,,,,None,,,None,,,,,,,,,,,89,0,89,0,1284.2843993000001,,,,,,,,,,,,,,,,,,,,,,,,,,,,,,,,,,,,,,,,,,,,,,,clips/clip_lied_12_nosub_0.mp4,audios/clip_lied_12_nosub_0.mp3,audiovisual,1284.2808290000003,1284.6746492000002,1284.8750367000002,1284.8750367000002,1284.8748753666666,1293.8886728000002,1294.0852800000002,1293.8888057,[],,1293.9896286000003,,,,1293.9896643000002,None,,,1293.9897041,1293.9897253,None,,,,,,,,315,001,2026-03-31_14h58.11.568,exp_sofc,,2025.2.3,60.564289598979194,2026-03-31 14h58.12.469611 +0200,
,90,0,90,,,,,,,,,,,,,,,,,,,,,,None,,,None,,,,,,,,,,,90,0,90,0,1294.0852800000002,,,,,,,,,,,,,,,,,,,,,,,,,,,,,,,,,,,,,,,,,,,,,,,clips/clip_wurst_31_nosub_1.mp4,audios/silence.mp3,visual,1294.0822841,1294.4982022,1294.6989514000002,1294.6989514000002,1294.6984882666668,1295.9508389000002,1305.9055009000003,1305.7168221000002,[],,1305.7999223000002,,,,1305.7999596,None,,,1305.7999933,1305.8000133,None,,,,,,,,315,001,2026-03-31_14h58.11.568,exp_sofc,,2025.2.3,60.564289598979194,2026-03-31 14h58.12.469611 +0200,
,91,0,91,,,,,,,,,,,,,,,,,,,,,,None,,,None,,,,,,,,,,,91,0,91,0,1305.9055009000003,,,,,,,,,,,,,,,,,,,,,,,,,,,,,,,,,,,,,,,,,,,,,,,clips/clip_herz_17_nosub_0.mp4,audios/silence.mp3,visual,1305.9013924,1306.3067882,1306.5073107000003,1306.5073107000003,1306.5072919666666,1307.7597989,1314.9189716,1314.7195533,[5.414805800000067],,1314.8176644,,,,1314.8177116000002,None,,,1314.8177837000003,1314.8178338000002,None,,,,,,,,315,001,2026-03-31_14h58.11.568,exp_sofc,,2025.2.3,60.564289598979194,2026-03-31 14h58.12.469611 +0200,
,92,0,92,,,,,,,,,,,,,,,,,,,,,,None,,,None,,,,,,,,,,,92,0,92,0,1314.9189716,,,,,,,,,,,,,,,,,,,,,,,,,,,,,,,,,,,,,,,,,,,,,,,clips/clip_weißt_19_sub_1.mp4,audios/silence.mp3,visual,1314.9137055,1315.3285342,1315.5293806,1315.5293806,1315.528942766667,1316.7813274,1325.7588631000003,1325.5613891000003,[],,1325.6533602,,,,1325.6534032,None,,,1325.6534873,1325.6535145000003,None,,,,,,,,315,001,2026-03-31_14h58.11.568,exp_sofc,,2025.2.3,60.564289598979194,2026-03-31 14h58.12.469611 +0200,
,93,0,93,,,,,,,,,,,,,,,,,,,,,,None,,,None,,,,,,,,,,,93,0,93,0,1325.7588631000003,,,,,,,,,,,,,,,,,,,,,,,,,,,,,,,,,,,,,,,,,,,,,,,clips/clip_holo_20_nosub_1.mp4,audios/silence.mp3,visual,1325.7560975000001,1326.1538788000003,1326.3543745000002,1326.3543745000002,1326.3547391666668,1327.6061114,1335.9685387,1335.7857583,[1.7623006999997415],,1335.8687513,,,,1335.8687882,None,,,1335.8688306000004,1335.8688466000003,None,,,,,,,,315,001,2026-03-31_14h58.11.568,exp_sofc,,2025.2.3,60.564289598979194,2026-03-31 14h58.12.469611 +0200,
,94,0,94,,,,,,,,,,,,,,,,,,,,,,None,,,None,,,,,,,,,,,94,0,94,0,1335.9685387,,,,,,,,,,,,,,,,,,,,,,,,,,,,,,,,,,,,,,,,,,,,,,,clips/clip_wurst_23_nosub_2.mp4,audios/silence.mp3,visual,1335.9637616,1336.3698271000003,1336.5708227,1336.5708227,1336.5702615666667,1337.8218764000003,1347.3173463000003,1347.1046689,"[3.693645099999685, 7.928464300000087]",,1347.2019612,,,,1347.2020497000003,None,,,1347.2021005000001,1347.2021243,None,,,,,,,,315,001,2026-03-31_14h58.11.568,exp_sofc,,2025.2.3,60.564289598979194,2026-03-31 14h58.12.469611 +0200,
,95,0,95,,,,,,,,,,,,,,,,,,,,,,None,,,None,,,,,,,,,,,95,0,95,0,1347.3173463000003,,,,,,,,,,,,,,,,,,,,,,,,,,,,,,,,,,,,,,,,,,,,,,,clips/clip_herz_05_nosub_0.mp4,audios/silence.mp3,visual,1347.312058,1347.7176952,1347.9199093000002,1347.9199093000002,1347.9178402666669,1349.1694974000002,1358.4588783,1358.2177165000003,"[5.907986800000344, 7.322038700000121]",,1358.3267234,,,,1358.3267563,None,,,1358.3267874000003,1358.3268116,None,,,,,,,,315,001,2026-03-31_14h58.11.568,exp_sofc,,2025.2.3,60.564289598979194,2026-03-31 14h58.12.469611 +0200,
,96,0,96,,,,,,,,,,,,,,,,,,,,,,None,,,None,,,,,,,,,,,96,0,96,0,1358.4588783,,,,,,,,,,,,,,,,,,,,,,,,,,,,,,,,,,,,,,,,,,,,,,,clips/clip_herz_09_sub_0.mp4,audios/clip_herz_09_sub_0.mp3,audiovisual,1358.4548204000002,1358.8264328,1359.0268450000003,1359.0268450000003,1359.026914466667,1370.7321967000003,1370.7321967000003,1370.5442995000003,[],,1370.6291454000002,,,,1370.6291796,None,,,1370.6292163000003,1370.6292341000003,None,,,,,,,,315,001,2026-03-31_14h58.11.568,exp_sofc,,2025.2.3,60.564289598979194,2026-03-31 14h58.12.469611 +0200,
,97,0,97,,,,,,,,,,,,,,,,,,,,,,None,,,None,,,,,,,,,,,97,0,97,0,1370.7321967000003,,,,,,,,,,,,,,,,,,,,,,,,,,,,,,,,,,,,,,,,,,,,,,,clips/clip_wurst_11_sub_0.mp4,audios/silence.mp3,visual,1370.7297707000002,1371.1340045000002,1371.3350365000001,1371.3350365000001,1371.3351295666669,1372.5861497,1383.559546,1383.3534062000003,[],,1383.4384046,,,,1383.4384382000003,None,,,1383.438471,1383.43849,None,,,,,,,,315,001,2026-03-31_14h58.11.568,exp_sofc,,2025.2.3,60.564289598979194,2026-03-31 14h58.12.469611 +0200,
,98,0,98,,,,,,,,,,,,,,,,,,,,,,None,,,None,,,,,,,,,,,98,0,98,0,1383.559546,,,,,,,,,,,,,,,,,,,,,,,,,,,,,,,,,,,,,,,,,,,,,,,clips/clip_weißt_26_nosub_1.mp4,audios/clip_weißt_26_nosub_1.mp3,audiovisual,1383.5561508,1383.9463827,1384.1460319000003,1384.1460319000003,1384.1460826666669,1394.3787557,1394.5942944000003,1394.3789696000003,[7.377459099999669],,1394.4775039,,,,1394.4775416000002,None,,,1394.4776106,1394.4776454000003,None,,,,,,,,315,001,2026-03-31_14h58.11.568,exp_sofc,,2025.2.3,60.564289598979194,2026-03-31 14h58.12.469611 +0200,
,99,0,99,,,,,,,,,,,,,,,,,,,,,,None,,,None,,,,,,,,,,,99,0,99,0,1394.5942944000003,,,,,,,,,,,,,,,,,,,,,,,,,,,,,,,,,,,,,,,,,,,,,,,clips/clip_lied_18_nosub_2.mp4,audios/clip_lied_18_nosub_2.mp3,audiovisual,1394.5906840000002,1394.9791171000002,1395.1792039000002,1395.1792039000002,1395.1794086666666,,1406.0854413000002,1405.8841896000004,"[5.421259300000202, 7.337042999999994]",,1405.9735025,,,,1405.9735361000003,None,,,1405.9735667,1405.9735858000004,None,,,,,,,,315,001,2026-03-31_14h58.11.568,exp_sofc,,2025.2.3,60.564289598979194,2026-03-31 14h58.12.469611 +0200,
,100,0,100,,,,,,,,,,,,,,,,,,,,,,None,,,None,,,,,,,,,,,100,0,100,0,1406.0854413000002,,,,,,,,,,,,,,,,,,,,,,,,,,,,,,,,,,,,,,,,,,,,,,,clips/clip_wurst_17_sub_0.mp4,audios/clip_wurst_17_sub_0.mp3,audiovisual,1406.0816952,1406.4883163,1406.6906576000001,1406.6906576000001,1406.6886008666668,1414.7181014000003,1414.9536093000002,1414.7182702,[],,1414.8159316,,,,1414.8159728,None,,,1414.8160616,1414.8160988,None,,,,,,,,315,001,2026-03-31_14h58.11.568,exp_sofc,,2025.2.3,60.564289598979194,2026-03-31 14h58.12.469611 +0200,
,101,0,101,,,,,,,,,,,,,,,,,,,,,,None,,,None,,,,,,,,,,,101,0,101,0,1414.9536093000002,,,,,,,,,,,,,,,,,,,,,,,,,,,,,,,,,,,,,,,,,,,,,,,clips/clip_hund_03_sub_1.mp4,audios/clip_hund_03_sub_1.mp3,audiovisual,1414.9498733,1415.3210162,1415.5222948,1415.5222948,1415.5221765666668,,1427.6199254000003,1427.4265155000003,[6.518628499999977],,1427.5227852000003,,,,1427.5228231,None,,,1427.5228572,1427.5228752000003,None,,,,,,,,315,001,2026-03-31_14h58.11.568,exp_sofc,,2025.2.3,60.564289598979194,2026-03-31 14h58.12.469611 +0200,
,102,0,102,,,,,,,,,,,,,,,,,,,,,,None,,,None,,,,,,,,,,,102,0,102,0,1427.6199254000003,,,,,,,,,,,,,,,,,,,,,,,,,,,,,,,,,,,,,,,,,,,,,,,clips/clip_wurst_36_sub_0.mp4,audios/silence.mp3,visual,1427.6163567000003,1428.0377161000001,1428.2385990000002,1428.2219989,1428.221943466667,1429.4733917000003,1438.2945726000003,1438.0884751000003,[],,1438.1856349,,,,1438.1856755000003,None,,,1438.1857124000003,1438.1857291000001,None,,,,,,,,315,001,2026-03-31_14h58.11.568,exp_sofc,,2025.2.3,60.564289598979194,2026-03-31 14h58.12.469611 +0200,
,103,0,103,,,,,,,,,,,,,,,,,,,,,,None,,,None,,,,,,,,,,,103,0,103,0,1438.2945726000003,,,,,,,,,,,,,,,,,,,,,,,,,,,,,,,,,,,,,,,,,,,,,,,clips/clip_wurst_21_nosub_0.mp4,audios/clip_wurst_21_nosub_0.mp3,audiovisual,1438.2900585000002,1438.6968260000003,1438.8966464,1438.8966464,1438.8966356666667,1449.4298562000004,1449.6256365,1449.4300464000003,[],,1449.5185332,,,,1449.5185691000001,None,,,1449.5186032000001,1449.5186243000003,None,,,,,,,,315,001,2026-03-31_14h58.11.568,exp_sofc,,2025.2.3,60.564289598979194,2026-03-31 14h58.12.469611 +0200,
,104,0,104,,,,,,,,,,,,,,,,,,,,,,None,,,None,,,,,,,,,,,104,0,104,0,1449.6256365,,,,,,,,,,,,,,,,,,,,,,,,,,,,,,,,,,,,,,,,,,,,,,,clips/clip_weißt_04_nosub_0.mp4,audios/silence.mp3,visual,1449.6214291000001,1450.0223583000002,1450.2223454,1450.2223454,1450.2224830666667,1451.4741588000002,1460.5341359000004,1460.3218048000003,[],,1460.4141014000002,,,,1460.4141410000002,None,,,1460.4141729000003,1460.414189,None,,,,,,,,315,001,2026-03-31_14h58.11.568,exp_sofc,,2025.2.3,60.564289598979194,2026-03-31 14h58.12.469611 +0200,
,105,0,105,,,,,,,,,,,,,,,,,,,,,,4,5.684877400000005,None,None,,,,,,,,,,,105,0,105,0,1460.5341359000004,,,,,,,,,,,,,,,,,,,,,,,,,,,,,,,,,,,,,,,,,,,,,,,clips/clip_holo_16_sub_1.mp4,audios/clip_holo_16_sub_1.mp3,audiovisual,1460.5306566,1460.9195882000004,1461.1193425000001,1461.1193425000001,1461.1193987666668,1473.2245898,1473.2245898,1473.1387785000002,[10.228065400000105],4,1473.2212099000003,1473.2245898,1473.2245898,1473.2245898,1478.9179326000003,4,5.684877400000005,None,1478.9179916000003,1478.9180173,None,,,,,,,,315,001,2026-03-31_14h58.11.568,exp_sofc,,2025.2.3,60.564289598979194,2026-03-31 14h58.12.469611 +0200,
,106,0,106,,,,,,,,,,,,,,,,,,,,,,2,2.7575511999998525,None,None,,,,,,,,,,,106,0,106,0,1479.0333948000002,,,,,,,,,,,,,,,,,,,,,,,,,,,,,,,,,,,,,,,,,,,,,,,clips/clip_wurst_22_nosub_0.mp4,audios/clip_wurst_22_nosub_0.mp3,audiovisual,1479.029375,1479.4178070000003,1479.6180433,1479.6180433,1479.6178445666667,1491.4206995,1491.4206995,1491.3199790000003,[],2,1491.4172995000004,1491.4206995,1491.4206995,1491.4206995,1494.1830354000003,2,2.7575511999998525,None,1494.1831005000004,1494.1831302,None,,,,,,,,315,001,2026-03-31_14h58.11.568,exp_sofc,,2025.2.3,60.564289598979194,2026-03-31 14h58.12.469611 +0200,
,107,0,107,,,,,,,,,,,,,,,,,,,,,,None,,,None,,,,,,,,,,,107,0,107,0,1494.2937759000001,,,,,,,,,,,,,,,,,,,,,,,,,,,,,,,,,,,,,,,,,,,,,,,clips/clip_wurst_20_sub_0.mp4,audios/silence.mp3,visual,1494.289753,1494.695083,1494.8957463000002,1494.8957463000002,1494.895750566667,1496.1471135000002,1505.1301605000003,1504.9278079,[],,1505.0183426000003,,,,1505.01838,None,,,1505.0184137,1505.0184291,None,,,,,,,,315,001,2026-03-31_14h58.11.568,exp_sofc,,2025.2.3,60.564289598979194,2026-03-31 14h58.12.469611 +0200,
,108,0,108,,,,,,,,,,,,,,,,,,,,,,None,,,None,,,,,,,,,,,108,0,108,0,1505.1301605000003,,,,,,,,,,,,,,,,,,,,,,,,,,,,,,,,,,,,,,,,,,,,,,,clips/clip_holo_21_sub_1.mp4,audios/silence.mp3,visual,1505.1264015000002,1505.5205804000002,1505.7207331,1505.7207331,1505.720946066667,1506.9732407000001,1516.1420175000003,1515.9202596,[4.5238673999997445],,1516.0123038000002,,,,1516.0123477000002,None,,,1516.0123921,1516.0124143000003,None,,,,,,,,315,001,2026-03-31_14h58.11.568,exp_sofc,,2025.2.3,60.564289598979194,2026-03-31 14h58.12.469611 +0200,
,109,0,109,,,,,,,,,,,,,,,,,,,,,,None,,,None,,,,,,,,,,,109,0,109,0,1516.1420175000003,,,,,,,,,,,,,,,,,,,,,,,,,,,,,,,,,,,,,,,,,,,,,,,clips/clip_lied_21_sub_2.mp4,audios/clip_lied_21_sub_2.mp3,audiovisual,1516.1388936000003,1516.5209775000003,1516.7208419000003,1516.7208419000003,1516.720989766667,1528.2385014000001,1528.4154936,1528.2387091,"[5.009113300000081, 10.520991900000354]",,1528.3230471000002,,,,1528.3230847,None,,,1528.3231241000003,1528.3231576000003,None,,,,,,,,315,001,2026-03-31_14h58.11.568,exp_sofc,,2025.2.3,60.564289598979194,2026-03-31 14h58.12.469611 +0200,
,110,0,110,,,,,,,,,,,,,,,,,,,,,,None,,,None,,,,,,,,,,,110,0,110,0,1528.4154936,,,,,,,,,,,,,,,,,,,,,,,,,,,,,,,,,,,,,,,,,,,,,,,clips/clip_weißt_14_nosub_2.mp4,audios/silence.mp3,visual,1528.4122974000002,1528.8233333000003,1529.0233350000003,1529.0233350000003,1529.0231202666666,1530.2761013,1538.1633478000003,1537.9541578000003,"[2.4752439999997478, 8.02794989999984]",,1538.0437259,,,,1538.04376,None,,,1538.0437935,1538.0438138,None,,,,,,,,315,001,2026-03-31_14h58.11.568,exp_sofc,,2025.2.3,60.564289598979194,2026-03-31 14h58.12.469611 +0200,
,111,0,111,,,,,,,,,,,,,,,,,,,,,,None,,,None,,,,,,,,,,,111,0,111,0,1538.1633478000003,,,,,,,,,,,,,,,,,,,,,,,,,,,,,,,,,,,,,,,,,,,,,,,clips/clip_wurst_24_sub_1.mp4,audios/clip_wurst_24_sub_1.mp3,audiovisual,1538.1597938,1538.5477572,1538.7487699000003,1538.7487699000003,1538.748269266667,1550.2588007,1550.2588007,1550.0658297,[],,1550.1605216000003,,,,1550.1605723000002,None,,,1550.1606522000002,1550.1606885,None,,,,,,,,315,001,2026-03-31_14h58.11.568,exp_sofc,,2025.2.3,60.564289598979194,2026-03-31 14h58.12.469611 +0200,
,112,0,112,,,,,,,,,,,,,,,,,,,,,,None,,,None,,,,,,,,,,,112,0,112,0,1550.2588007,,,,,,,,,,,,,,,,,,,,,,,,,,,,,,,,,,,,,,,,,,,,,,,clips/clip_claude_19_nosub_0.mp4,audios/silence.mp3,visual,1550.2535321,1550.6747799,1550.8756413,1550.8756413,1550.8752014666668,1552.1280165000003,1561.4944500000001,1561.2923272000003,[],,1561.3770504,,,,1561.3770855000002,None,,,1561.3771177000003,1561.3771376,None,,,,,,,,315,001,2026-03-31_14h58.11.568,exp_sofc,,2025.2.3,60.564289598979194,2026-03-31 14h58.12.469611 +0200,
,113,0,113,,,,,,,,,,,,,,,,,,,,,,None,,,None,,,,,,,,,,,113,0,113,0,1561.4944500000001,,,,,,,,,,,,,,,,,,,,,,,,,,,,,,,,,,,,,,,,,,,,,,,clips/clip_hund_04_sub_0.mp4,audios/silence.mp3,visual,1561.4898304000003,1561.8843828000004,1562.0848932000004,1562.0848932000004,1562.084204666667,1563.3364424000001,1571.8283013,1571.6167568,[],,1571.714121,,,,1571.7141567000003,None,,,1571.7141955000002,1571.7142115000001,None,,,,,,,,315,001,2026-03-31_14h58.11.568,exp_sofc,,2025.2.3,60.564289598979194,2026-03-31 14h58.12.469611 +0200,
,114,0,114,,,,,,,,,,,,,,,,,,,,,,None,,,None,,,,,,,,,,,114,0,114,0,1571.8283013,,,,,,,,,,,,,,,,,,,,,,,,,,,,,,,,,,,,,,,,,,,,,,,clips/clip_wurst_08_nosub_1.mp4,audios/clip_wurst_08_nosub_1.mp3,audiovisual,1571.8248848000003,1572.2303793,1572.4304157000001,1572.4304157000001,1572.4306655666667,1580.9602101,1581.1876968000001,1580.9604172,[5.344497099999899],,1581.0614854,,,,1581.0615187000003,None,,,1581.0615527,1581.0615758000004,None,,,,,,,,315,001,2026-03-31_14h58.11.568,exp_sofc,,2025.2.3,60.564289598979194,2026-03-31 14h58.12.469611 +0200,
,115,0,115,,,,,,,,,,,,,,,,,,,,,,None,,,None,,,,,,,,,,,115,0,115,0,1581.1876968000001,,,,,,,,,,,,,,,,,,,,,,,,,,,,,,,,,,,,,,,,,,,,,,,clips/clip_holo_13_sub_1.mp4,audios/clip_holo_13_sub_1.mp3,audiovisual,1581.1840973000003,1581.5611187,1581.7612025000003,1581.7612025000003,1581.7612918666666,1593.7552530000003,1593.7552530000003,1593.579624,[4.334521799999948],,1593.6586590000002,,,,1593.6587819000001,None,,,1593.6588322000002,1593.6588580000002,None,,,,,,,,315,001,2026-03-31_14h58.11.568,exp_sofc,,2025.2.3,60.564289598979194,2026-03-31 14h58.12.469611 +0200,
,116,0,116,,,,,,,,,,,,,,,,,,,,,,None,,,None,,,,,,,,,,,116,0,116,0,1593.7552530000003,,,,,,,,,,,,,,,,,,,,,,,,,,,,,,,,,,,,,,,,,,,,,,,clips/clip_wurst_01_sub_0.mp4,audios/silence.mp3,visual,1593.7507313,1594.1634932000002,1594.3655887,1594.3655887,1594.363773166667,1595.6159171,1604.4991334000001,1604.2962895,[],,1604.3900334,,,,1604.3900714000001,None,,,1604.3901102,1604.3901372,None,,,,,,,,315,001,2026-03-31_14h58.11.568,exp_sofc,,2025.2.3,60.564289598979194,2026-03-31 14h58.12.469611 +0200,
,117,0,117,,,,,,,,,,,,,,,,,,,,,,None,,,None,,,,,,,,,,,117,0,117,0,1604.4991334000001,,,,,,,,,,,,,,,,,,,,,,,,,,,,,,,,,,,,,,,,,,,,,,,clips/clip_holo_14_sub_0.mp4,audios/silence.mp3,visual,1604.4941132000004,1604.8886025000002,1605.0893371000002,1605.0893371000002,1605.0893602666667,1606.3420577000002,1615.3196328000004,1615.1226077000001,[],,1615.2150836,,,,1615.2151438,None,,,1615.2151807,1615.2151983000003,None,,,,,,,,315,001,2026-03-31_14h58.11.568,exp_sofc,,2025.2.3,60.564289598979194,2026-03-31 14h58.12.469611 +0200,
,118,0,118,,,,,,,,,,,,,,,,,,,,,,3,4.3101307000001725,None,None,,,,,,,,,,,118,0,118,0,1615.3196328000004,,,,,,,,,,,,,,,,,,,,,,,,,,,,,,,,,,,,,,,,,,,,,,,clips/clip_wurst_10_sub_2.mp4,audios/silence.mp3,visual,1615.3165128,1615.7305986000001,1615.9312326,1615.9312326,1615.9312064666667,1617.1841364000002,1624.8367842000002,1624.7293094000001,"[4.756595700000162, 7.19728699999996]",3,1624.8335716000001,1624.8367842000002,1624.8367842000002,1624.8367842000002,1629.1612779000002,3,4.3101307000001725,None,1629.1613261000002,1629.161344,None,,,,,,,,315,001,2026-03-31_14h58.11.568,exp_sofc,,2025.2.3,60.564289598979194,2026-03-31 14h58.12.469611 +0200,
,119,0,119,,,,,,,,,,,,,,,,,,,,,,None,,,space,0.9997892999999749,None,,,,,,,,,119,0,119,0,1629.2821953000002,,,,,,,,,,,,,,,,,,,,,,,,,,,,,,,,,,,,,,,,,,,,,,,clips/clip_dampf_04_nosub_1.mp4,audios/silence.mp3,visual,1629.279496,1629.6619085000002,1629.8642092,1629.8642092,1629.8627459666666,1631.114375,1639.5924997000002,1639.4941399,[4.85104709999996],,1639.5841031,,,,1639.5841394,None,,,1639.5841698,1640.6046899000003,space,1639.5924997000002,1639.5924997000002,1639.5924997000002,0.9997892999999749,None,,,315,001,2026-03-31_14h58.11.568,exp_sofc,,2025.2.3,60.564289598979194,2026-03-31 14h58.12.469611 +0200,
,120,0,120,,,,,,,,,,,,,,,,,,,,,,None,,,None,,,,,,,,,,,120,0,120,0,1640.7473109000002,,,,,,,,,,,,,,,,,,,,,,,,,,,,,,,,,,,,,,,,,,,,,,,clips/clip_claude_27_nosub_0.mp4,audios/clip_claude_27_nosub_0.mp3,audiovisual,1640.7433344,1641.1131021,1641.3150548000003,1641.3150548000003,1641.3135467666668,1653.5280543000003,1653.5280543000003,1653.3330717000003,[],,1653.4257687,,,,1653.4258064,None,,,1653.4258388000003,1653.4258841,None,,,,,,,,315,001,2026-03-31_14h58.11.568,exp_sofc,,2025.2.3,60.564289598979194,2026-03-31 14h58.12.469611 +0200,
,121,0,121,,,,,,,,,,,,,,,,,,,,,,None,,,None,,,,,,,,,,,121,0,121,0,1653.5280543000003,,,,,,,,,,,,,,,,,,,,,,,,,,,,,,,,,,,,,,,,,,,,,,,clips/clip_wurst_30_sub_1.mp4,audios/silence.mp3,visual,1653.5239042000003,1653.9412823000002,1654.1418043000003,1654.1418043000003,1654.1416143666668,1655.3939154,1664.3799387000004,1664.1750404,[],,1664.2579612,,,,1664.2580048,None,,,1664.2580469,1664.2580696,None,,,,,,,,315,001,2026-03-31_14h58.11.568,exp_sofc,,2025.2.3,60.564289598979194,2026-03-31 14h58.12.469611 +0200,
,122,0,122,,,,,,,,,,,,,,,,,,,,,,1,2.492582400000174,None,None,,,,,,,,,,,122,0,122,0,1664.3799387000004,,,,,,,,,,,,,,,,,,,,,,,,,,,,,,,,,,,,,,,,,,,,,,,clips/clip_wurst_29_nosub_1.mp4,audios/clip_wurst_29_nosub_1.mp3,audiovisual,1664.3765322,1664.7663806,1664.9669502000002,1664.9669502000002,1664.9670583666668,1676.9854983,1677.0930522000003,1676.9857025000001,[],1,1677.0893410000003,1677.0930522000003,1677.0930522000003,1677.0930522000003,1679.5981463000003,1,2.492582400000174,None,1679.5982040000004,1679.5982304,None,,,,,,,,315,001,2026-03-31_14h58.11.568,exp_sofc,,2025.2.3,60.564289598979194,2026-03-31 14h58.12.469611 +0200,
,123,0,123,,,,,,,,,,,,,,,,,,,,,,None,,,None,,,,,,,,,,,123,0,123,0,1679.7126187000003,,,,,,,,,,,,,,,,,,,,,,,,,,,,,,,,,,,,,,,,,,,,,,,clips/clip_herz_06_nosub_2.mp4,audios/clip_herz_06_nosub_2.mp3,audiovisual,1679.7085300000003,1680.1140194,1680.3149043000003,1680.2982463000003,1680.2983039666667,1691.0695516,1691.0695516,1690.8807229000004,"[5.144660799999656, 8.172604899999897]",,1690.9740309000003,,,,1690.9740616,None,,,1690.9740925,1690.9741088,None,,,,,,,,315,001,2026-03-31_14h58.11.568,exp_sofc,,2025.2.3,60.564289598979194,2026-03-31 14h58.12.469611 +0200,
,124,0,124,,,,,,,,,,,,,,,,,,,,,,None,,,None,,,,,,,,,,,124,0,124,0,1691.0695516,,,,,,,,,,,,,,,,,,,,,,,,,,,,,,,,,,,,,,,,,,,,,,,clips/clip_claude_22_sub_2.mp4,audios/silence.mp3,visual,1691.0665262000002,1691.4875279000003,1691.6884389000002,1691.6884389000002,1691.6883555666666,1692.9397465000002,1702.6321739,1702.4390087000002,[8.888875799999823],,1702.5283853,,,,1702.5284460000003,None,,,1702.5285008,1702.5285281000001,None,,,,,,,,315,001,2026-03-31_14h58.11.568,exp_sofc,,2025.2.3,60.564289598979194,2026-03-31 14h58.12.469611 +0200,
,125,0,125,,,,,,,,,,,,,,,,,,,,,,None,,,None,,,,,,,,,,,125,0,125,0,1702.6321739,,,,,,,,,,,,,,,,,,,,,,,,,,,,,,,,,,,,,,,,,,,,,,,clips/clip_claude_02_sub_1.mp4,audios/clip_claude_02_sub_1.mp3,audiovisual,1702.6284720000003,1703.0302354,1703.2314452,1703.2314452,1703.2314326666667,1713.2290063,1713.2290063,1713.0390038,[5.714627300000302],,1713.1243607000001,,,,1713.124479,None,,,1713.124535,1713.1245556000003,None,,,,,,,,315,001,2026-03-31_14h58.11.568,exp_sofc,,2025.2.3,60.564289598979194,2026-03-31 14h58.12.469611 +0200,
,126,0,126,,,,,,,,,,,,,,,,,,,,,,2,2.721527799999876,None,None,,,,,,,,,,,126,0,126,0,1713.2290063,,,,,,,,,,,,,,,,,,,,,,,,,,,,,,,,,,,,,,,,,,,,,,,clips/clip_weißt_16_nosub_0.mp4,audios/silence.mp3,visual,1713.2265757,1713.6387915,1713.8390683000002,1713.8390683000002,1713.8392382666668,1715.0906969000002,1724.4667855000002,1724.3728788000003,[],2,1724.4632332,1724.4667855000002,1724.4667855000002,1724.4667855000002,1727.2018663000003,2,2.721527799999876,None,1727.2019127000003,1727.2019316,None,,,,,,,,315,001,2026-03-31_14h58.11.568,exp_sofc,,2025.2.3,60.564289598979194,2026-03-31 14h58.12.469611 +0200,
,127,0,127,,,,,,,,,,,,,,,,,,,,,,None,,,None,,,,,,,,,,,127,0,127,0,1727.3107911000002,,,,,,,,,,,,,,,,,,,,,,,,,,,,,,,,,,,,,,,,,,,,,,,clips/clip_dampf_01_nosub_0.mp4,audios/silence.mp3,visual,1727.3053143000002,1727.7107051000003,1727.9115612,1727.9115612,1727.9116981666668,1729.1632935000002,1737.5742105,1737.3604959,[],,1737.4557093000003,,,,1737.4557401000002,None,,,1737.4557684000001,1737.4557843000002,None,,,,,,,,315,001,2026-03-31_14h58.11.568,exp_sofc,,2025.2.3,60.564289598979194,2026-03-31 14h58.12.469611 +0200,
,128,0,128,,,,,,,,,,,,,,,,,,,,,,None,,,None,,,,,,,,,,,128,0,128,0,1737.5742105,,,,,,,,,,,,,,,,,,,,,,,,,,,,,,,,,,,,,,,,,,,,,,,clips/clip_lied_01_sub_1.mp4,audios/clip_lied_01_sub_1.mp3,audiovisual,1737.5707714,1737.9594459,1738.1592681000002,1738.1592681000002,1738.1592544666667,1748.1927896000002,1748.3823756000002,1748.1930282000003,[4.736225199999808],,1748.2786985000002,,,,1748.2787363000002,None,,,1748.2787734000003,1748.2787896,None,,,,,,,,315,001,2026-03-31_14h58.11.568,exp_sofc,,2025.2.3,60.564289598979194,2026-03-31 14h58.12.469611 +0200,
,129,0,129,,,,,,,,,,,,,,,,,,,,,,None,,,None,,,,,,,,,,,129,0,129,0,1748.3823756000002,,,,,,,,,,,,,,,,,,,,,,,,,,,,,,,,,,,,,,,,,,,,,,,clips/clip_hund_07_nosub_1.mp4,audios/silence.mp3,visual,1748.3771157,1748.7822931,1748.9833035000001,1748.9833035000001,1748.9830619666666,1750.2345697,1760.7846758,1760.6015173,[6.512847599999986],,1760.6877992,,,,1760.6878751,None,,,1760.6879282,1760.6879505000002,None,,,,,,,,315,001,2026-03-31_14h58.11.568,exp_sofc,,2025.2.3,60.564289598979194,2026-03-31 14h58.12.469611 +0200,
,130,0,130,,,,,,,,,,,,,,,,,,,,,,None,,,None,,,,,,,,,,,130,0,130,0,1760.7846758,,,,,,,,,,,,,,,,,,,,,,,,,,,,,,,,,,,,,,,,,,,,,,,clips/clip_weißt_15_sub_1.mp4,audios/silence.mp3,visual,1760.7800790000001,1761.2017124000004,1761.4023283000001,1761.4023283000001,1761.402519266667,1762.6556898000003,1772.5355424,1772.3196190000003,"[3.2002182000001085, 4.909583900000143]",,1772.4115646,,,,1772.4116415000003,None,,,1772.4116841,1772.4117011000003,None,,,,,,,,315,001,2026-03-31_14h58.11.568,exp_sofc,,2025.2.3,60.564289598979194,2026-03-31 14h58.12.469611 +0200,
,131,0,131,,,,,,,,,,,,,,,,,,,,,,None,,,None,,,,,,,,,,,131,0,131,0,1772.5355424,,,,,,,,,,,,,,,,,,,,,,,,,,,,,,,,,,,,,,,,,,,,,,,clips/clip_hund_05_nosub_0.mp4,audios/clip_hund_05_nosub_0.mp3,audiovisual,1772.5321388000002,1772.9219863000003,1773.1368155,1773.1202539,1773.120131866667,1784.3434697000002,1784.3434697000002,1784.1373888000003,[4.076224699999784],,1784.2228071,,,,1784.2228588000003,None,,,1784.2229109,1784.2229374000003,None,,,,,,,,315,001,2026-03-31_14h58.11.568,exp_sofc,,2025.2.3,60.564289598979194,2026-03-31 14h58.12.469611 +0200,
,132,0,132,,,,,,,,,,,,,,,,,,,,,,None,,,None,,,,,,,,,,,132,0,132,0,1784.3434697000002,,,,,,,,,,,,,,,,,,,,,,,,,,,,,,,,,,,,,,,,,,,,,,,clips/clip_wurst_05_nosub_0.mp4,audios/clip_wurst_05_nosub_0.mp3,audiovisual,1784.3402663000002,1784.7298506000002,1784.9307032000002,1784.9307032000002,1784.930556666667,1793.6437955000001,1793.8377347,1793.6439525,[],,1793.7262487000003,,,,1793.7262847000002,None,,,1793.7263209000002,1793.7263372000002,None,,,,,,,,315,001,2026-03-31_14h58.11.568,exp_sofc,,2025.2.3,60.564289598979194,2026-03-31 14h58.12.469611 +0200,
,133,0,133,,,,,,,,,,,,,,,,,,,,,,None,,,None,,,,,,,,,,,133,0,133,0,1793.8377347,,,,,,,,,,,,,,,,,,,,,,,,,,,,,,,,,,,,,,,,,,,,,,,clips/clip_holo_01_nosub_1.mp4,audios/clip_holo_01_nosub_1.mp3,audiovisual,1793.8338335000003,1794.236269,1794.4367406000001,1794.4367406000001,1794.4365197666668,,1803.8452590000002,1803.6361268,[3.9967428999998447],,1803.7293838,,,,1803.7294657000002,None,,,1803.7295174,1803.7295422000002,None,,,,,,,,315,001,2026-03-31_14h58.11.568,exp_sofc,,2025.2.3,60.564289598979194,2026-03-31 14h58.12.469611 +0200,
,134,0,134,,,,,,,,,,,,,,,,,,,,,,2,4.264425800000026,None,None,,,,,,,,,,,134,0,134,0,1803.8452590000002,,,,,,,,,,,,,,,,,,,,,,,,,,,,,,,,,,,,,,,,,,,,,,,clips/clip_holo_06_nosub_2.mp4,audios/clip_holo_06_nosub_2.mp3,audiovisual,1803.8420174000003,1804.2297521,1804.4310170000003,1804.4310170000003,1804.430104766667,1814.1955885000002,1814.2943323,1814.1957634,"[4.953636199999892, 8.699641600000177]",2,1814.2904663,1814.2943323,1814.2943323,1814.2943323,1818.5605339000003,2,4.264425800000026,None,1818.5605804000002,1818.5605984000003,None,,,,,,,,315,001,2026-03-31_14h58.11.568,exp_sofc,,2025.2.3,60.564289598979194,2026-03-31 14h58.12.469611 +0200,
,135,0,135,,,,,,,,,,,,,,,,,,,,,,None,,,None,,,,,,,,,,,135,0,135,0,1818.6523137,,,,,,,,,,,,,,,,,,,,,,,,,,,,,,,,,,,,,,,,,,,,,,,clips/clip_wurst_12_sub_0.mp4,audios/silence.mp3,visual,1818.6498327,1819.0697565,1819.270598,1819.270598,1819.2700497666667,1820.5226063,1828.0938337000002,1827.9011273,[],,1827.9930566000003,,,,1827.9930917000002,None,,,1827.9931234,1827.9931391,None,,,,,,,,315,001,2026-03-31_14h58.11.568,exp_sofc,,2025.2.3,60.564289598979194,2026-03-31 14h58.12.469611 +0200,
,136,0,136,,,,,,,,,,,,,,,,,,,,,,None,,,None,,,,,,,,,,,136,0,136,0,1828.0938337000002,,,,,,,,,,,,,,,,,,,,,,,,,,,,,,,,,,,,,,,,,,,,,,,clips/clip_lied_19_nosub_1.mp4,audios/silence.mp3,visual,1828.0885874,1828.492546,1828.6928799000002,1828.6928799000002,1828.6941689666667,1829.9455839000002,1839.5862333,1839.3933668,[4.89213749999999],,1839.4812124,,,,1839.4812587000001,None,,,1839.4813061,1839.4813289000003,None,,,,,,,,315,001,2026-03-31_14h58.11.568,exp_sofc,,2025.2.3,60.564289598979194,2026-03-31 14h58.12.469611 +0200,
,137,0,137,,,,,,,,,,,,,,,,,,,,,,1,3.813659899999948,None,None,,,,,,,,,,,137,0,137,0,1839.5862333,,,,,,,,,,,,,,,,,,,,,,,,,,,,,,,,,,,,,,,,,,,,,,,clips/clip_wurst_25_sub_1.mp4,audios/silence.mp3,visual,1839.5825177000002,1839.9852724000002,1840.1864502000003,1840.1864502000003,1840.1865508666667,1841.4389198000003,1851.5159294,1851.4201047000001,[],1,1851.5123240000003,1851.5159294,1851.5159294,1851.5159294,1855.3343586,1,3.813659899999948,None,1855.3344168000003,1855.3344419,None,,,,,,,,315,001,2026-03-31_14h58.11.568,exp_sofc,,2025.2.3,60.564289598979194,2026-03-31 14h58.12.469611 +0200,
,138,0,138,,,,,,,,,,,,,,,,,,,,,,None,,,None,,,,,,,,,,,138,0,138,0,1855.457578,,,,,,,,,,,,,,,,,,,,,,,,,,,,,,,,,,,,,,,,,,,,,,,clips/clip_holo_04_sub_2.mp4,audios/clip_holo_04_sub_2.mp3,audiovisual,1855.4537073000001,1855.8348827,1856.0353523000003,1856.0353523000003,1856.035219666667,1868.2636548,1868.2636548,1868.0553147,"[3.0442386999998234, 7.081571699999586]",,1868.1517966000001,,,,1868.1518441000003,None,,,1868.151887,1868.1519057,None,,,,,,,,315,001,2026-03-31_14h58.11.568,exp_sofc,,2025.2.3,60.564289598979194,2026-03-31 14h58.12.469611 +0200,
,139,0,139,,,,,,,,,,,,,,,,,,,,,,None,,,None,,,,,,,,,,,139,0,139,0,1868.2636548,,,,,,,,,,,,,,,,,,,,,,,,,,,,,,,,,,,,,,,,,,,,,,,clips/clip_hund_20_sub_0.mp4,audios/silence.mp3,visual,1868.2588998,1868.6642242000003,1868.8642484000002,1868.8642484000002,1868.8642233666667,1870.1169621000004,1880.5927678000003,1880.3825411000003,[],,1880.4943005,,,,1880.4943581000002,None,,,1880.4944277,1880.4944530000002,None,,,,,,,,315,001,2026-03-31_14h58.11.568,exp_sofc,,2025.2.3,60.564289598979194,2026-03-31 14h58.12.469611 +0200,
,140,0,140,,,,,,,,,,,,,,,,,,,,,,1,3.5511271999998826,None,None,,,,,,,,,,,140,0,140,0,1880.5927678000003,,,,,,,,,,,,,,,,,,,,,,,,,,,,,,,,,,,,,,,,,,,,,,,clips/clip_wurst_27_nosub_1.mp4,audios/silence.mp3,visual,1880.5880814000002,1881.0097349000002,1881.2099210000001,1881.2099210000001,1881.2098185666666,1882.4620155000002,1891.5183349000004,1891.4100845000003,[5.860951699999987],1,1891.5144731,1891.5183349000004,1891.5183349000004,1891.5183349000004,1895.0745485000002,1,3.5511271999998826,None,1895.0746047000002,1895.0746288,None,,,,,,,,315,001,2026-03-31_14h58.11.568,exp_sofc,,2025.2.3,60.564289598979194,2026-03-31 14h58.12.469611 +0200,
,141,0,141,,,,,,,,,,,,,,,,,,,,,,None,,,None,,,,,,,,,,,141,0,141,0,1895.1737042,,,,,,,,,,,,,,,,,,,,,,,,,,,,,,,,,,,,,,,,,,,,,,,clips/clip_holo_18_nosub_0.mp4,audios/silence.mp3,visual,1895.1681067,1895.5841259000003,1895.7840056,1895.7840056,1895.7837032666669,1897.0368655000002,1907.8559866,1907.6532851000002,"[6.259117699999933, 8.783467199999905]",,1907.7409933000004,,,,1907.7410242,None,,,1907.7410513,1907.7410662000002,None,,,,,,,,315,001,2026-03-31_14h58.11.568,exp_sofc,,2025.2.3,60.564289598979194,2026-03-31 14h58.12.469611 +0200,
,142,0,142,,,,,,,,,,,,,,,,,,,,,,None,,,None,,,,,,,,,,,142,0,142,0,1907.8559866,,,,,,,,,,,,,,,,,,,,,,,,,,,,,,,,,,,,,,,,,,,,,,,clips/clip_claude_05_sub_2.mp4,audios/clip_claude_05_sub_2.mp3,audiovisual,1907.8524611000003,1908.2454259,1908.4453587000003,1908.4453587000003,1908.4454964666668,,1919.9516560000002,1919.7459669,[4.610083500000201],,1919.8461556000002,,,,1919.8462228000003,None,,,1919.8462736000001,1919.8462963000002,None,,,,,,,,315,001,2026-03-31_14h58.11.568,exp_sofc,,2025.2.3,60.564289598979194,2026-03-31 14h58.12.469611 +0200,
,143,0,143,,,,,,,,,,,,,,,,,,,,,,None,,,None,,,,,,,,,,,143,0,143,0,1919.9516560000002,,,,,,,,,,,,,,,,,,,,,,,,,,,,,,,,,,,,,,,,,,,,,,,clips/clip_hund_30_sub_0.mp4,audios/silence.mp3,visual,1919.947145,1920.3468132000003,1920.5473153000003,1920.5473153000003,1920.547093566667,1921.799074,1932.7541561000003,1932.5661522,[],,1932.6509242000002,,,,1932.6509858,None,,,1932.6511027000001,1932.6511262000004,None,,,,,,,,315,001,2026-03-31_14h58.11.568,exp_sofc,,2025.2.3,60.564289598979194,2026-03-31 14h58.12.469611 +0200,
,144,0,144,,,,,,,,,,,,,,,,,,,,,,None,,,None,,,,,,,,,,,144,0,144,0,1932.7541561000003,,,,,,,,,,,,,,,,,,,,,,,,,,,,,,,,,,,,,,,,,,,,,,,clips/clip_holo_22_sub_1.mp4,audios/silence.mp3,visual,1932.7505955000001,1933.1554571000001,1933.3561364000002,1933.3561364000002,1933.3558902666666,1934.6076354000002,1942.7586889,1942.5541929,[9.128036500000235],,1942.6534358000004,,,,1942.6534704,None,,,1942.6535051,1942.6535210000002,None,,,,,,,,315,001,2026-03-31_14h58.11.568,exp_sofc,,2025.2.3,60.564289598979194,2026-03-31 14h58.12.469611 +0200,
,145,0,145,,,,,,,,,,,,,,,,,,,,,,None,,,None,,,,,,,,,,,145,0,145,0,1942.7586889,,,,,,,,,,,,,,,,,,,,,,,,,,,,,,,,,,,,,,,,,,,,,,,clips/clip_weißt_13_sub_0.mp4,audios/silence.mp3,visual,1942.7557381000001,1943.1625425000002,1943.3630583,1943.3630583,1943.3629461666667,1944.6150313000003,1954.3610591000001,1954.1805339000002,[],,1954.2713735000002,,,,1954.2714403,None,,,1954.2715084000001,1954.2715275,None,,,,,,,,315,001,2026-03-31_14h58.11.568,exp_sofc,,2025.2.3,60.564289598979194,2026-03-31 14h58.12.469611 +0200,
,146,0,146,,,,,,,,,,,,,,,,,,,,,,None,,,None,,,,,,,,,,,146,0,146,0,1954.3610591000001,,,,,,,,,,,,,,,,,,,,,,,,,,,,,,,,,,,,,,,,,,,,,,,clips/clip_herz_16_nosub_0.mp4,audios/silence.mp3,visual,1954.3577835,1954.7811598000003,1954.9811489000003,1954.9811489000003,1954.9809871666669,1956.2328571000003,1964.2118819000002,1964.0130403000003,[-0.0046429999997599225],,1964.1039281000003,,,,1964.1039942000002,None,,,1964.1040402000003,1964.1040580000004,None,,,,,,,,315,001,2026-03-31_14h58.11.568,exp_sofc,,2025.2.3,60.564289598979194,2026-03-31 14h58.12.469611 +0200,
,147,0,147,,,,,,,,,,,,,,,,,,,,,,2,3.6375593999996454,None,None,,,,,,,,,,,147,0,147,0,1964.2118819000002,,,,,,,,,,,,,,,,,,,,,,,,,,,,,,,,,,,,,,,,,,,,,,,clips/clip_holo_12_nosub_1.mp4,audios/silence.mp3,visual,1964.2072496,1964.6043728,1964.8050510000003,1964.8050510000003,1964.8048893666667,1966.0566041000002,1974.9445100000003,1974.8368628000003,[8.599584900000082],2,1974.940849,1974.9445100000003,1974.9445100000003,1974.9445100000003,1978.5848504,2,3.6375593999996454,None,1978.5849096000002,1978.5849928000002,None,,,,,,,,315,001,2026-03-31_14h58.11.568,exp_sofc,,2025.2.3,60.564289598979194,2026-03-31 14h58.12.469611 +0200,
,148,0,148,,,,,,,,,,,,,,,,,,,,,,None,,,None,,,,,,,,,,,148,0,148,0,1978.6865246000002,,,,,,,,,,,,,,,,,,,,,,,,,,,,,,,,,,,,,,,,,,,,,,,clips/clip_herz_07_sub_2.mp4,audios/silence.mp3,visual,1978.6813632000003,1979.0934247,1979.2940416000001,1979.2940416000001,1979.2937224666668,1980.5470529,1991.5258141,1991.3125965,"[4.212332199999764, 11.054268399999728]",,1991.4060445,,,,1991.4060781000003,None,,,1991.4061070000002,1991.4061217000003,None,,,,,,,,315,001,2026-03-31_14h58.11.568,exp_sofc,,2025.2.3,60.564289598979194,2026-03-31 14h58.12.469611 +0200,
,149,0,149,,,,,,,,,,,,,,,,,,,,,,None,,,None,,,,,,,,,,,149,0,149,0,1991.5258141,,,,,,,,,,,,,,,,,,,,,,,,,,,,,,,,,,,,,,,,,,,,,,,clips/clip_wurst_34_sub_2.mp4,audios/clip_wurst_34_sub_2.mp3,audiovisual,1991.5220457,1991.9098905,1992.1113592000002,1992.1113592000002,1992.110738966667,2000.6411935,2000.8226652000003,2000.6413694000003,[6.511615099999744],,2000.723141,,,,2000.7232241000002,None,,,2000.7232767,2000.723301,None,,,,,,,,315,001,2026-03-31_14h58.11.568,exp_sofc,,2025.2.3,60.564289598979194,2026-03-31 14h58.12.469611 +0200,
,150,0,150,,,,,,,,,,,,,,,,,,,,,,None,,,None,,,,,,,,,,,150,0,150,0,2000.8226652000003,,,,,,,,,,,,,,,,,,,,,,,,,,,,,,,,,,,,,,,,,,,,,,,clips/clip_hund_29_sub_0.mp4,audios/silence.mp3,visual,2000.817489,2001.2243001000002,2001.4256152000003,2001.4256152000003,2001.4251322666667,2002.6769128,2013.0408160000002,2012.8435974000004,[10.473012599999947],,2012.9322244,,,,2012.9322638000003,None,,,2012.9323029000002,2012.9323243000003,None,,,,,,,,315,001,2026-03-31_14h58.11.568,exp_sofc,,2025.2.3,60.564289598979194,2026-03-31 14h58.12.469611 +0200,
