instruction_text,thisN,thisTrialN,thisRepN,key_resp_instruction.keys,key_resp_instruction.rt,key_resp_instruction.duration,clip_file,clip_path,sound_path,movie,subtitles,n_cut,clip_num,first_cut,second_cut,clip_duration,attention_check_question,attention_check_correct,attention_check_distractor_1,attention_check_distractor_2,attention_check_distractor_3,prac_attention_resp.keys,prac_attention_resp.rt,prac_attention_resp.duration,exp_atttention_resp.keys,exp_atttention_resp.rt,exp_atttention_resp.duration,exp_pause_resp.keys,exp_pause_resp.rt,exp_pause_resp.duration,instruction_trials.thisRepN,instruction_trials.thisTrialN,instruction_trials.thisN,instruction_trials.thisIndex,practice_trials.thisRepN,practice_trials.thisTrialN,practice_trials.thisN,practice_trials.thisIndex,experiment_trials.thisRepN,experiment_trials.thisTrialN,experiment_trials.thisN,experiment_trials.thisIndex,thisRow.t,notes,instructions.started,text_instruction.started,key_resp_instruction.started,instructions.stopped,instruction_trials.key_resp_instruction.keys,instruction_trials.key_resp_instruction.rt,instruction_trials.key_resp_instruction.duration,informed_consent.started,slider_informed_consent.started,text_informed_consent.started,informed_consent.stopped,slider_informed_consent.response,slider_informed_consent.rt,begin_practice.started,begin_practice_text.started,begin_practice.stopped,Practice_clip_name,Practice_video_used,Practice_audio_used,Practice_modality,Practice_subtitles,Practice_attention_check,practice_clip.started,prac_feedback.started,prac_fixation_cross.started,prac_fixation_cross.stopped,prac_clip.started,prac_sound.started,prac_sound.stopped,prac_clip.stopped,practice_clip.stopped,prac_all_cut_rts,Practice_correct_key_required,practice_attention_check.started,prac_attention_resp.started,prac_question.started,prac_options.started,practice_attention_check.stopped,practice_trials.prac_attention_resp.keys,practice_trials.prac_attention_resp.rt,practice_trials.prac_attention_resp.duration,begin_experiment.started,begin_experiment_text.started,begin_experiment_text.stopped,begin_experiment.stopped,video_used,audio_used,condition_modality,experiment_clip.started,exp_fixation_cross.started,exp_fixation_cross.stopped,exp_clip.started,exp_sound.started,exp_sound.stopped,exp_clip.stopped,experiment_clip.stopped,all_cut_rts,correct_key_required,experiment_attention_check.started,exp_atttention_resp.started,exp_question.started,exp_options.started,experiment_attention_check.stopped,experiment_trials.exp_atttention_resp.keys,experiment_trials.exp_atttention_resp.rt,experiment_trials.exp_atttention_resp.duration,experiment_pause.started,experiment_pause.stopped,experiment_trials.exp_pause_resp.keys,exp_pause_text.started,exp_pause_resp.started,exp_countdown.started,experiment_trials.exp_pause_resp.rt,experiment_trials.exp_pause_resp.duration,end.started,text_end.started,participant,session,date,expName,expVersion,psychopyVersion,frameRate,expStart,
"Herzlich willkommen!

Vielen Dank, dass Sie an unserer Studie teilnehmen. Die Untersuchung wird insgesamt etwa 35 Minuten in Anspruch nehmen.

Bevor wir beginnen, beachten Sie bitte folgende Voraussetzungen für die Teilnahme:
• Sie sind mindestens 18 Jahre alt.
• Ihre Muttersprache ist Deutsch.

(Drücken Sie die Leertaste, um fortzufahren)",0,0,0,space,5.314495900000111,None,,,,,,,,,,,,,,,,,,,,,,,,,0,0,0,0,,,,,,,,,0.038538900000276044,,0.014732500000718574,0.038538900000276044,0.038538900000276044,5.364640900000268,space,5.314495900000111,None,,,,,,,,,,,,,,,,,,,,,,,,,,,,,,,,,,,,,,,,,,,,,,,,,,,,,,,,,,,,,,,,,,,,,,320,001,2026-03-31_16h06.21.339,exp_sofc,,2025.2.3,59.41724751971676,2026-03-31 16h06.22.382603 +0200,
"Ablauf der Studie

Ihnen werden in schneller Abfolge viele kurze Filmclips gezeigt.
Ihre Aufgabe ist einfach:

Drücken Sie jedes Mal die Leertaste, wenn Sie einen Filmschnitt (Cut) erkennen.

Zusätzlich werden Ihnen gelegentlich kurze Verständnisfragen zu den gezeigten Clips gestellt.

(Drücken Sie die Leertaste, um fortzufahren),",1,1,0,space,6.790970799999741,None,,,,,,,,,,,,,,,,,,,,,,,,,0,1,1,1,,,,,,,,,5.385079300000143,,5.364735099999962,5.385079300000143,5.385079300000143,12.18803090000074,space,6.790970799999741,None,,,,,,,,,,,,,,,,,,,,,,,,,,,,,,,,,,,,,,,,,,,,,,,,,,,,,,,,,,,,,,,,,,,,,,320,001,2026-03-31_16h06.21.339,exp_sofc,,2025.2.3,59.41724751971676,2026-03-31 16h06.22.382603 +0200,
"Freiwilligkeit Ihrer Teilnahme

Ihre Teilnahme an dieser Studie ist absolut freiwillig. Sie können das Experiment jederzeit und ohne Angabe von Gründen abbrechen, ohne dass Ihnen daraus irgendwelche Nachteile entstehen.

Sollten Sie die Studie vorzeitig beenden, werden Ihre bis dahin erhobenen Daten umgehend gelöscht und nicht gespeichert.

(Drücken Sie die Leertaste, um fortzufahren)",2,2,0,space,7.381780699999581,None,,,,,,,,,,,,,,,,,,,,,,,,,0,2,2,2,,,,,,,,,12.272974000000431,,12.188165000000481,12.272974000000431,12.272974000000431,19.669185100000504,space,7.381780699999581,None,,,,,,,,,,,,,,,,,,,,,,,,,,,,,,,,,,,,,,,,,,,,,,,,,,,,,,,,,,,,,,,,,,,,,,320,001,2026-03-31_16h06.21.339,exp_sofc,,2025.2.3,59.41724751971676,2026-03-31 16h06.22.382603 +0200,
"Datenschutz und Anonymität

Die Erhebung und Auswertung Ihrer Daten erfolgt am Fachbereich Psychologie der Universität Tübingen und ist vollständig anonym. Ihr Name wird zu keinem Zeitpunkt erfragt oder gespeichert. Niemand wird Ihre Daten mit Ihrer Person in Verbindung bringen können.

Die anonymisierten Experimentaldaten werden nach Abschluss der Erhebung für mindestens 10 Jahre gespeichert und zu Forschungszwecken in einer öffentlichen Datenbank zugänglich gemacht.

(Drücken Sie die Leertaste, um fortzufahren),",3,3,0,space,4.6499045999999,None,,,,,,,,,,,,,,,,,,,,,,,,,0,3,3,3,,,,,,,,,19.697390500000438,,19.669312400000308,19.697390500000438,19.697390500000438,24.35984600000029,space,4.6499045999999,None,,,,,,,,,,,,,,,,,,,,,,,,,,,,,,,,,,,,,,,,,,,,,,,,,,,,,,,,,,,,,,,,,,,,,,320,001,2026-03-31_16h06.21.339,exp_sofc,,2025.2.3,59.41724751971676,2026-03-31 16h06.22.382603 +0200,
"Einverständniserklärung

Bitte lesen Sie die folgende Erklärung aufmerksam durch:

Ich bestätige, dass ich über 18 Jahre alt bin und ausreichend Zeit hatte, mich für die Teilnahme zu entscheiden. Ich wurde über die Erhebung, Verarbeitung und öffentliche Zugänglichmachung meiner anonymisierten Daten angemessen informiert.
Ich bin mir bewusst, dass ich das Experiment jederzeit abbrechen kann.

(Drücken Sie die Leertaste, um fortzufahren)",4,4,0,space,6.50625300000047,None,,,,,,,,,,,,,,,,,,,,,,,,,0,4,4,4,,,,,,,,,24.382310200000575,,24.35997800000041,24.382310200000575,24.382310200000575,30.903310200000305,space,6.50625300000047,None,,,,,,,,,,,,,,,,,,,,,,,,,,,,,,,,,,,,,,,,,,,,,,,,,,,,,,,,,,,,,,,,,,,,,,320,001,2026-03-31_16h06.21.339,exp_sofc,,2025.2.3,59.41724751971676,2026-03-31 16h06.22.382603 +0200,
,,,,,,,,,,,,,,,,,,,,,,,,,,,,,,,,,,,,,,,,,,,,,,,,,,,,30.90444260000004,30.919164300000375,30.919164300000375,36.09454090000054,ich stimme zu,5.173864499999581,,,,,,,,,,,,,,,,,,,,,,,,,,,,,,,,,,,,,,,,,,,,,,,,,,,,,,,,,,,,,,,,320,001,2026-03-31_16h06.21.339,exp_sofc,,2025.2.3,59.41724751971676,2026-03-31 16h06.22.382603 +0200,
,,,,,,,,,,,,,,,,,,,,,,,,,,,,,,,,,,,,,,,,,,,,,,,,,,,,,,,,,,36.09458429999995,36.11168020000059,41.1022324000005,,,,,,,,,,,,,,,,,,,,,,,,,,,,,,,,,,,,,,,,,,,,,,,,,,,,,,,,,,,,,320,001,2026-03-31_16h06.21.339,exp_sofc,,2025.2.3,59.41724751971676,2026-03-31 16h06.22.382603 +0200,
,0,0,0,,,,clip_weißt_10_nosub_1,clips/clip_weißt_10_nosub_1.mp4,audios/clip_weißt_10_nosub_1.mp3,weißt,nosub,1,10,4280.0,NA,11000,Was macht der Mann?,er greift an den Fernseher,er schaltet das Radio ein,er wirft eine Flasche,er öffnet das Fenster,1,12.2393562999996,None,,,,,,,,,,,0,0,0,6,,,,,41.416559000000234,,,,,,,,,,,,,,,,,,clip_hund_02_sub_1,clips/clip_hund_02_sub_1.mp4,audios/clip_hund_02_sub_1.mp3,audiovisual,sub,True,41.41195340000013,41.416559000000234,41.60076879999997,41.801262800000586,41.801262800000586,41.801768966666955,51.73365190000004,51.8439699999999,51.73521740000069,[9.361265400000775],3,51.83955330000026,51.8439699999999,51.8439699999999,51.8439699999999,64.09845640000003,1,12.2393562999996,None,,,,,,,,,,,,,,,,,,,,,,,,,,,,,,,,,,,,320,001,2026-03-31_16h06.21.339,exp_sofc,,2025.2.3,59.41724751971676,2026-03-31 16h06.22.382603 +0200,
,1,1,0,,,,clip_hund_31_sub_0,clips/clip_hund_31_sub_0.mp4,audios/silence.mp3,hund,sub,1,31,1966.0,NA,8433,Welche Tageszeit ist es?,abends,morgens,mittags,nachts,None,,,,,,,,,,,,,0,1,1,9,,,,,64.2365634000007,,,,,,,,,,,,,,,,,,clip_weißt_10_nosub_1,clips/clip_weißt_10_nosub_1.mp4,audios/clip_weißt_10_nosub_1.mp3,audiovisual,nosub,False,64.23039020000033,64.2365634000007,64.60477480000009,64.80450830000063,64.80450830000063,64.80487586666665,76.03231010000036,76.03231010000036,75.82304530000056,[6.302020699999957],,75.92146420000063,,,,75.92149410000002,None,,,,,,,,,,,,,,,,,,,,,,,,,,,,,,,,,,,,,,320,001,2026-03-31_16h06.21.339,exp_sofc,,2025.2.3,59.41724751971676,2026-03-31 16h06.22.382603 +0200,
,2,2,0,,,,clip_weißt_09_sub_1,clips/clip_weißt_09_sub_1.mp4,audios/silence.mp3,weißt,sub,1,9,4866.0,NA,9000,Was macht die Frau?,sie wickelt ein Band auf,sie näht,sie strickt,sie faltet Wäsche,None,,,,,,,,,,,,,0,2,2,5,,,,,76.03231010000036,,,,,,,,,,,,,,,,,,clip_weißt_21_nosub_0,clips/clip_weißt_21_nosub_0.mp4,audios/silence.mp3,visual,nosub,False,76.02689129999999,76.03231010000036,76.43359330000021,76.63406630000009,76.63406630000009,76.63408886666663,77.88578310000048,86.99323120000008,86.7349807999999,[0.3033945999995922],,86.85680230000071,,,,86.8568350000005,None,,,,,,,,,,,,,,,,,,,,,,,,,,,,,,,,,,,,,,320,001,2026-03-31_16h06.21.339,exp_sofc,,2025.2.3,59.41724751971676,2026-03-31 16h06.22.382603 +0200,
,3,3,0,,,,clip_hund_25_sub_1,clips/clip_hund_25_sub_1.mp4,audios/silence.mp3,hund,sub,1,25,5466.0,NA,8300,Mit was essen die Personen?,mit ihren Händen,mit Messer und Gabel,mit Stäbchen,mit einem Löffel,None,,,,,,,,,,,,,0,3,3,11,,,,,86.99323120000008,,,,,,,,,,,,,,,,,,clip_hund_06_nosub_0,clips/clip_hund_06_nosub_0.mp4,audios/clip_hund_06_nosub_0.mp3,audiovisual,nosub,False,86.98747810000077,86.99323120000008,87.3619918000004,87.56115649999992,87.56115649999992,87.56109046666667,,98.67688990000079,98.44616360000055,[0.3541723999996975],,98.55087000000003,,,,98.55095230000006,None,,,,,,,,,,,,,,,,,,,,,,,,,,,,,,,,,,,,,,320,001,2026-03-31_16h06.21.339,exp_sofc,,2025.2.3,59.41724751971676,2026-03-31 16h06.22.382603 +0200,
,4,4,0,,,,clip_weißt_18_nosub_1,clips/clip_weißt_18_nosub_1.mp4,audios/silence.mp3,weißt,nosub,1,18,5680.0,NA,12000,Wie wirken die Personen?,überrascht,wütend,verzweifelt,gelangweilt,3,4.267766100000699,None,,,,,,,,,,,0,4,4,7,,,,,98.67688990000079,,,,,,,,,,,,,,,,,,clip_wurst_09_sub_1,clips/clip_wurst_09_sub_1.mp4,audios/clip_wurst_09_sub_1.mp3,audiovisual,sub,True,98.67044040000019,98.67688990000079,99.06298480000078,99.26290360000075,99.26290360000075,99.26369366666701,,110.66052519999994,110.54833899999994,[4.927823399999397],3,110.65734330000032,110.66052519999994,110.66052519999994,110.66052519999994,114.93512550000014,3,4.267766100000699,None,,,,,,,,,,,,,,,,,,,,,,,,,,,,,,,,,,,,320,001,2026-03-31_16h06.21.339,exp_sofc,,2025.2.3,59.41724751971676,2026-03-31 16h06.22.382603 +0200,
,5,5,0,,,,clip_weißt_21_nosub_0,clips/clip_weißt_21_nosub_0.mp4,audios/silence.mp3,weißt,nosub,0,21,NA,NA,10080,Wo stehen die Personen?,am Balkongeländer,am Strand,an einer Bushaltestelle,im Wald,None,,,,,,,,,,,,,0,5,5,1,,,,,115.05625680000048,,,,,,,,,,,,,,,,,,clip_hund_26_sub_1,clips/clip_hund_26_sub_1.mp4,audios/silence.mp3,visual,sub,False,115.05064330000005,115.05625680000048,115.43759750000027,115.63617030000023,115.63617030000023,115.63666366666736,116.8880850000005,125.23141260000011,125.00118090000069,[],,125.08757839999998,,,,125.08761050000066,None,,,,,,,,,,,,,,,,,,,,,,,,,,,,,,,,,,,,,,320,001,2026-03-31_16h06.21.339,exp_sofc,,2025.2.3,59.41724751971676,2026-03-31 16h06.22.382603 +0200,
,6,6,0,,,,clip_hund_28_nosub_0,clips/clip_hund_28_nosub_0.mp4,audios/clip_hund_28_nosub_0.mp3,hund,nosub,0,28,NA,NA,9840,Was steht auf dem Tisch vor den Personen?,Weinflasche mit Gläsern,Wasser,Bier,Kaffee,2,2.4679082999991806,None,,,,,,,,,,,0,6,6,4,,,,,125.23141260000011,,,,,,,,,,,,,,,,,,clip_weißt_05_sub_0,clips/clip_weißt_05_sub_0.mp4,audios/clip_weißt_05_sub_0.mp3,audiovisual,sub,True,125.22686700000031,125.23141260000011,125.60129649999999,125.8021432000005,125.8021432000005,125.80167606666716,,135.70451260000027,135.60334760000023,[0.31675629999972443],3,135.70075460000044,135.70451260000027,135.70451260000027,135.70451260000027,138.1798318000001,2,2.4679082999991806,None,,,,,,,,,,,,,,,,,,,,,,,,,,,,,,,,,,,,320,001,2026-03-31_16h06.21.339,exp_sofc,,2025.2.3,59.41724751971676,2026-03-31 16h06.22.382603 +0200,
,7,7,0,,,,clip_hund_26_sub_1,clips/clip_hund_26_sub_1.mp4,audios/silence.mp3,hund,sub,0,26,NA,NA,9333,Wie wirkt die Frau?,amüsiert,hasserfüllt,traurig,ängstlich,None,,,,,,,,,,,,,0,7,7,3,,,,,138.3003458000003,,,,,,,,,,,,,,,,,,clip_weißt_18_nosub_1,clips/clip_weißt_18_nosub_1.mp4,audios/silence.mp3,visual,nosub,False,138.29188040000008,138.3003458000003,138.68002840000008,138.8804780999999,138.8804780999999,138.88142736666694,140.13232229999994,151.12004330000036,150.9029384000005,[6.984871800000292],,151.01126170000043,,,,151.0113498999999,None,,,,,,,,,,,,,,,,,,,,,,,,,,,,,,,,,,,,,,320,001,2026-03-31_16h06.21.339,exp_sofc,,2025.2.3,59.41724751971676,2026-03-31 16h06.22.382603 +0200,
,8,8,0,,,,clip_hund_02_sub_1,clips/clip_hund_02_sub_1.mp4,audios/clip_hund_02_sub_1.mp3,hund,sub,1,2,8300.0,NA,9900,Welche Farbe hat der Pullover der Frau?,grün,schwarz,blau,rot,2,4.436979500000234,None,,,,,,,,,,,0,8,8,8,,,,,151.12004330000036,,,,,,,,,,,,,,,,,,clip_hund_31_sub_0,clips/clip_hund_31_sub_0.mp4,audios/silence.mp3,visual,sub,True,151.11529840000003,151.12004330000036,151.5192035,151.72051120000015,151.72051120000015,151.71953136666733,152.9712238000002,160.28544030000012,160.1835074999999,[3.49459939999997],2,160.28175020000072,160.28544030000012,160.28544030000012,160.28544030000012,164.7312595000003,2,4.436979500000234,None,,,,,,,,,,,,,,,,,,,,,,,,,,,,,,,,,,,,320,001,2026-03-31_16h06.21.339,exp_sofc,,2025.2.3,59.41724751971676,2026-03-31 16h06.22.382603 +0200,
,9,9,0,,,,clip_hund_06_nosub_0,clips/clip_hund_06_nosub_0.mp4,audios/clip_hund_06_nosub_0.mp3,hund,nosub,0,6,NA,NA,10860,Wie sieht das Studio aus?,unaufgeräumt,sehr ordentlich,komplett leer,stark überfüllt,None,,,,,,,,,,,,,0,9,9,2,,,,,164.82892410000022,,,,,,,,,,,,,,,,,,clip_hund_25_sub_1,clips/clip_hund_25_sub_1.mp4,audios/silence.mp3,visual,sub,False,164.82415690000016,164.82892410000022,165.24079270000038,165.44086640000023,165.44086640000023,165.44156806666732,166.69253990000016,173.9799722000007,173.77165820000027,[6.727445900000021],,173.8626419000002,,,,173.8626735000007,None,,,,,,,,,,,,,,,,,,,,,,,,,,,,,,,,,,,,,,320,001,2026-03-31_16h06.21.339,exp_sofc,,2025.2.3,59.41724751971676,2026-03-31 16h06.22.382603 +0200,
,10,10,0,,,,clip_weißt_05_sub_0,clips/clip_weißt_05_sub_0.mp4,audios/clip_weißt_05_sub_0.mp3,weißt,sub,0,5,NA,NA,9767,Wer trägt die Leiter?,die Frau,der Mann,beide,keiner,None,,,,,,,,,,,,,0,10,10,0,,,,,173.9799722000007,,,,,,,,,,,,,,,,,,clip_weißt_09_sub_1,clips/clip_weißt_09_sub_1.mp4,audios/silence.mp3,visual,sub,False,173.9737395000002,173.9799722000007,174.36445120000008,174.5647374,174.5647374,174.56556676666722,175.81679430000077,183.8134138000005,183.5966225000002,[5.898061599999892],,183.69352359999993,,,,183.6935596000003,None,,,,,,,,,,,,,,,,,,,,,,,,,,,,,,,,,,,,,,320,001,2026-03-31_16h06.21.339,exp_sofc,,2025.2.3,59.41724751971676,2026-03-31 16h06.22.382603 +0200,
,11,11,0,,,,clip_wurst_09_sub_1,clips/clip_wurst_09_sub_1.mp4,audios/clip_wurst_09_sub_1.mp3,wurst,sub,1,9,3666.0,NA,11267,Wer sind die alten Menschen wahrscheinlich?,Großeltern,Eltern,Geschwister,Nachbarn,None,,,,,,,,,,,,,0,11,11,10,,,,,183.8134138000005,,,,,,,,,,,,,,,,,,clip_hund_28_nosub_0,clips/clip_hund_28_nosub_0.mp4,audios/clip_hund_28_nosub_0.mp3,audiovisual,nosub,False,183.80807090000053,183.8134138000005,184.19619320000038,184.39724230000047,184.39724230000047,184.3965223666667,194.36046590000024,194.36046590000024,194.26193070000045,[],,194.3562692000005,,,,194.35630130000027,None,,,,,,,,,,,,,,,,,,,,,,,,,,,,,,,,,,,,,,320,001,2026-03-31_16h06.21.339,exp_sofc,,2025.2.3,59.41724751971676,2026-03-31 16h06.22.382603 +0200,
,,,,,,,,,,,,,,,,,,,,,,,,,,,,,,,,,,,,,,,,,,,,,,,,,,,,,,,,,,,,,,,,,,,,,,,,,,,,,,,,,,,,,,194.35642280000047,194.36046590000024,199.43350460000056,199.34481290000076,,,,,,,,,,,,,,,,,,,,,,,,,,,,,,,,320,001,2026-03-31_16h06.21.339,exp_sofc,,2025.2.3,59.41724751971676,2026-03-31 16h06.22.382603 +0200,
,0,0,0,,,,,,,,,,,,,,,,,,,,,,2,4.397980400000051,None,None,,,,,,,,,,,0,0,0,0,199.43350460000056,,,,,,,,,,,,,,,,,,,,,,,,,,,,,,,,,,,,,,,,,,,,,,,clips/clip_wurst_16_nosub_0.mp4,audios/silence.mp3,visual,199.42798350000066,199.86846870000045,200.0690940000004,200.0690940000004,200.06962236666666,201.32091730000047,210.19465110000056,210.10201580000012,[],2,210.19021890000022,210.19465110000056,210.19465110000056,210.19465110000056,214.60003480000069,2,4.397980400000051,None,214.60008390000075,214.6001064000002,None,,,,,,,,320,001,2026-03-31_16h06.21.339,exp_sofc,,2025.2.3,59.41724751971676,2026-03-31 16h06.22.382603 +0200,
,1,0,1,,,,,,,,,,,,,,,,,,,,,,None,,,None,,,,,,,,,,,1,0,1,0,214.72238790000029,,,,,,,,,,,,,,,,,,,,,,,,,,,,,,,,,,,,,,,,,,,,,,,clips/clip_lied_17_sub_2.mp4,audios/silence.mp3,visual,214.71638669999993,215.10064930000044,215.30255960000068,215.30255960000068,215.30125266666735,216.55287190000035,225.54477920000045,225.3345560000007,"[3.244702199999665, 7.990122499999416]",,225.42504820000067,,,,225.4250818999999,None,,,225.4251119999999,225.42512700000043,None,,,,,,,,320,001,2026-03-31_16h06.21.339,exp_sofc,,2025.2.3,59.41724751971676,2026-03-31 16h06.22.382603 +0200,
,2,0,2,,,,,,,,,,,,,,,,,,,,,,None,,,None,,,,,,,,,,,2,0,2,0,225.54477920000045,,,,,,,,,,,,,,,,,,,,,,,,,,,,,,,,,,,,,,,,,,,,,,,clips/clip_holo_10_nosub_1.mp4,audios/clip_holo_10_nosub_1.mp3,audiovisual,225.5405438000007,225.92860410000048,226.12931910000043,226.12931910000043,226.12932986666718,236.0947528000006,236.28441720000046,236.0949126000005,[6.107014399999571],,236.1990155000003,,,,236.19905090000066,None,,,236.19908620000024,236.19910750000054,None,,,,,,,,320,001,2026-03-31_16h06.21.339,exp_sofc,,2025.2.3,59.41724751971676,2026-03-31 16h06.22.382603 +0200,
,3,0,3,,,,,,,,,,,,,,,,,,,,,,4,3.4066125999997894,None,None,,,,,,,,,,,3,0,3,0,236.28441720000046,,,,,,,,,,,,,,,,,,,,,,,,,,,,,,,,,,,,,,,,,,,,,,,clips/clip_holo_27_sub_1.mp4,audios/silence.mp3,visual,236.27848950000043,236.70134420000068,236.9014074000006,236.9014074000006,236.90139556666716,238.1546640000006,246.9997331000004,246.90024530000028,[5.326833799999804],4,246.99584930000037,246.9997331000004,246.9997331000004,246.9997331000004,250.41397620000043,4,3.4066125999997894,None,250.41403900000023,250.4140651000007,None,,,,,,,,320,001,2026-03-31_16h06.21.339,exp_sofc,,2025.2.3,59.41724751971676,2026-03-31 16h06.22.382603 +0200,
,4,0,4,,,,,,,,,,,,,,,,,,,,,,None,,,None,,,,,,,,,,,4,0,4,0,250.53814480000074,,,,,,,,,,,,,,,,,,,,,,,,,,,,,,,,,,,,,,,,,,,,,,,clips/clip_holo_20_sub_1.mp4,audios/clip_holo_20_sub_1.mp3,audiovisual,250.5336167000005,250.9145120000003,251.11538830000063,251.11538830000063,251.11480836666695,260.5461296000003,260.7400320000006,260.5463085000001,[],,260.6419257000007,,,,260.64199090000056,None,,,260.6420238999999,260.6420392,None,,,,,,,,320,001,2026-03-31_16h06.21.339,exp_sofc,,2025.2.3,59.41724751971676,2026-03-31 16h06.22.382603 +0200,
,5,0,5,,,,,,,,,,,,,,,,,,,,,,None,,,None,,,,,,,,,,,5,0,5,0,260.7400320000006,,,,,,,,,,,,,,,,,,,,,,,,,,,,,,,,,,,,,,,,,,,,,,,clips/clip_hund_09_nosub_2.mp4,audios/silence.mp3,visual,260.7349847000005,261.15599160000056,261.35699680000016,261.35699680000016,261.3561698666674,262.60771300000033,273.1424778999999,272.92521149999993,"[5.407106499999827, 10.5522990999998]",,273.02000410000073,,,,273.02004340000076,None,,,273.0201027000003,273.02013780000016,None,,,,,,,,320,001,2026-03-31_16h06.21.339,exp_sofc,,2025.2.3,59.41724751971676,2026-03-31 16h06.22.382603 +0200,
,6,0,6,,,,,,,,,,,,,,,,,,,,,,None,,,None,,,,,,,,,,,6,0,6,0,273.1424778999999,,,,,,,,,,,,,,,,,,,,,,,,,,,,,,,,,,,,,,,,,,,,,,,clips/clip_wurst_15_sub_2.mp4,audios/clip_wurst_15_sub_2.mp3,audiovisual,273.1387714000002,273.5249444000001,273.7255395000002,273.7255395000002,273.7248141666671,283.15647890000037,283.3752376000002,283.1566109000005,[5.490577300000041],,283.25513820000015,,,,283.2551776,None,,,283.2552443000004,283.2552798000006,None,,,,,,,,320,001,2026-03-31_16h06.21.339,exp_sofc,,2025.2.3,59.41724751971676,2026-03-31 16h06.22.382603 +0200,
,7,0,7,,,,,,,,,,,,,,,,,,,,,,None,,,None,,,,,,,,,,,7,0,7,0,283.3752376000002,,,,,,,,,,,,,,,,,,,,,,,,,,,,,,,,,,,,,,,,,,,,,,,clips/clip_lied_18_nosub_2.mp4,audios/clip_lied_18_nosub_2.mp3,audiovisual,283.37127970000074,283.75795240000025,283.9578366000005,283.9578366000005,283.95735296666703,294.8709152000001,294.8709152000001,294.66481640000075,[5.364377400000194],,294.75846960000035,,,,294.7585091000001,None,,,294.7585459000002,294.75857260000066,None,,,,,,,,320,001,2026-03-31_16h06.21.339,exp_sofc,,2025.2.3,59.41724751971676,2026-03-31 16h06.22.382603 +0200,
,8,0,8,,,,,,,,,,,,,,,,,,,,,,None,,,None,,,,,,,,,,,8,0,8,0,294.8709152000001,,,,,,,,,,,,,,,,,,,,,,,,,,,,,,,,,,,,,,,,,,,,,,,clips/clip_claude_15_sub_0.mp4,audios/clip_claude_15_sub_0.mp3,audiovisual,294.86721470000066,295.27211910000005,295.47284020000006,295.47284020000006,295.4724773666669,307.7057284000002,307.7057284000002,307.49145769999996,[],,307.57678400000077,,,,307.5768237000002,None,,,307.57689460000074,307.5769284000007,None,,,,,,,,320,001,2026-03-31_16h06.21.339,exp_sofc,,2025.2.3,59.41724751971676,2026-03-31 16h06.22.382603 +0200,
,9,0,9,,,,,,,,,,,,,,,,,,,,,,None,,,None,,,,,,,,,,,9,0,9,0,307.7057284000002,,,,,,,,,,,,,,,,,,,,,,,,,,,,,,,,,,,,,,,,,,,,,,,clips/clip_wurst_01_nosub_0.mp4,audios/clip_wurst_01_nosub_0.mp3,audiovisual,307.70186790000025,308.0902380000007,308.29060070000014,308.29060070000014,308.2904943666674,318.23943210000016,318.4314546000005,318.2396327000006,[],,318.33227700000043,,,,318.33234560000074,None,,,318.33239630000025,318.33242040000005,None,,,,,,,,320,001,2026-03-31_16h06.21.339,exp_sofc,,2025.2.3,59.41724751971676,2026-03-31 16h06.22.382603 +0200,
,10,0,10,,,,,,,,,,,,,,,,,,,,,,None,,,None,,,,,,,,,,,10,0,10,0,318.4314546000005,,,,,,,,,,,,,,,,,,,,,,,,,,,,,,,,,,,,,,,,,,,,,,,clips/clip_wurst_14_sub_1.mp4,audios/silence.mp3,visual,318.4256157,318.8479679000002,319.04907490000005,319.04907490000005,319.04846746666703,320.30007019999994,329.2794856999999,329.0814018000001,[7.794846900000266],,329.1718445000006,,,,329.1719350000003,None,,,329.17198330000065,329.17200050000065,None,,,,,,,,320,001,2026-03-31_16h06.21.339,exp_sofc,,2025.2.3,59.41724751971676,2026-03-31 16h06.22.382603 +0200,
,11,0,11,,,,,,,,,,,,,,,,,,,,,,None,,,None,,,,,,,,,,,11,0,11,0,329.2794856999999,,,,,,,,,,,,,,,,,,,,,,,,,,,,,,,,,,,,,,,,,,,,,,,clips/clip_dampf_03_sub_1.mp4,audios/clip_dampf_03_sub_1.mp3,audiovisual,329.27636580000035,329.6733576000006,329.87338180000006,329.87338180000006,329.8731314666668,337.5023938000004,337.70674469999994,337.5026260000004,[7.6860711999997875],,337.59694650000074,,,,337.5969855000003,None,,,337.5970213999999,337.5970427000002,None,,,,,,,,320,001,2026-03-31_16h06.21.339,exp_sofc,,2025.2.3,59.41724751971676,2026-03-31 16h06.22.382603 +0200,
,12,0,12,,,,,,,,,,,,,,,,,,,,,,None,,,None,,,,,,,,,,,12,0,12,0,337.70674469999994,,,,,,,,,,,,,,,,,,,,,,,,,,,,,,,,,,,,,,,,,,,,,,,clips/clip_herz_16_sub_0.mp4,audios/clip_herz_16_sub_0.mp3,audiovisual,337.7032976999999,338.1110726000006,338.31150740000066,338.31150740000066,338.31130746666736,347.34256390000064,347.5557041000002,347.34273180000037,[],,347.4289466,,,,347.4290279000006,None,,,347.4290751000008,347.4290961000006,None,,,,,,,,320,001,2026-03-31_16h06.21.339,exp_sofc,,2025.2.3,59.41724751971676,2026-03-31 16h06.22.382603 +0200,
,13,0,13,,,,,,,,,,,,,,,,,,,,,,1,3.524513299999853,None,None,,,,,,,,,,,13,0,13,0,347.5557041000002,,,,,,,,,,,,,,,,,,,,,,,,,,,,,,,,,,,,,,,,,,,,,,,clips/clip_claude_21_nosub_1.mp4,audios/clip_claude_21_nosub_1.mp3,audiovisual,347.5516935000005,347.9403811000002,348.14027870000064,348.14027870000064,348.14005056666724,360.4107610000001,360.5106953000004,360.4109586000004,[9.724021800000628],1,360.50727730000017,360.5106953000004,360.5106953000004,360.5106953000004,364.04053420000037,1,3.524513299999853,None,364.0405836,364.0406019000002,None,,,,,,,,320,001,2026-03-31_16h06.21.339,exp_sofc,,2025.2.3,59.41724751971676,2026-03-31 16h06.22.382603 +0200,
,14,0,14,,,,,,,,,,,,,,,,,,,,,,None,,,None,,,,,,,,,,,14,0,14,0,364.14249760000075,,,,,,,,,,,,,,,,,,,,,,,,,,,,,,,,,,,,,,,,,,,,,,,clips/clip_holo_13_sub_1.mp4,audios/silence.mp3,visual,364.13974190000044,364.5490041000003,364.74975470000027,364.74975470000027,364.74920316666726,366.00293450000026,376.7907352000002,376.56824529999994,[4.379909299999781],,376.6544197000003,,,,376.65446390000034,None,,,376.6545070000002,376.6545326000005,None,,,,,,,,320,001,2026-03-31_16h06.21.339,exp_sofc,,2025.2.3,59.41724751971676,2026-03-31 16h06.22.382603 +0200,
,15,0,15,,,,,,,,,,,,,,,,,,,,,,None,,,None,,,,,,,,,,,15,0,15,0,376.7907352000002,,,,,,,,,,,,,,,,,,,,,,,,,,,,,,,,,,,,,,,,,,,,,,,clips/clip_wurst_33_nosub_0.mp4,audios/clip_wurst_33_nosub_0.mp3,audiovisual,376.78740840000046,377.1691137000007,377.3707639000004,377.3707639000004,377.36903866666694,387.1006672000003,387.29579640000065,387.10079470000073,[],,387.19671070000004,,,,387.19674570000006,None,,,387.19678360000034,387.1968018000007,None,,,,,,,,320,001,2026-03-31_16h06.21.339,exp_sofc,,2025.2.3,59.41724751971676,2026-03-31 16h06.22.382603 +0200,
,16,0,16,,,,,,,,,,,,,,,,,,,,,,None,,,None,,,,,,,,,,,16,0,16,0,387.29579640000065,,,,,,,,,,,,,,,,,,,,,,,,,,,,,,,,,,,,,,,,,,,,,,,clips/clip_dampf_04_nosub_1.mp4,audios/silence.mp3,visual,387.29150110000046,387.7108581000002,387.9112266000002,387.9112266000002,387.911063466667,389.1622554000005,397.7421626000005,397.54223900000034,[5.3890652999998565],,397.63496960000066,,,,397.6350323000006,None,,,397.6350919000006,397.6351405000005,None,,,,,,,,320,001,2026-03-31_16h06.21.339,exp_sofc,,2025.2.3,59.41724751971676,2026-03-31 16h06.22.382603 +0200,
,17,0,17,,,,,,,,,,,,,,,,,,,,,,None,,,None,,,,,,,,,,,17,0,17,0,397.7421626000005,,,,,,,,,,,,,,,,,,,,,,,,,,,,,,,,,,,,,,,,,,,,,,,clips/clip_holo_21_nosub_1.mp4,audios/silence.mp3,visual,397.7376296000002,398.1343385,398.3350752000006,398.3350752000006,398.33490776666736,399.5873156000007,408.76536920000035,408.53435680000075,[4.351702200000545],,408.646667,,,,408.6467042000004,None,,,408.6467413999999,408.6467609000001,None,,,,,,,,320,001,2026-03-31_16h06.21.339,exp_sofc,,2025.2.3,59.41724751971676,2026-03-31 16h06.22.382603 +0200,
,18,0,18,,,,,,,,,,,,,,,,,,,,,,None,,,None,,,,,,,,,,,18,0,18,0,408.76536920000035,,,,,,,,,,,,,,,,,,,,,,,,,,,,,,,,,,,,,,,,,,,,,,,clips/clip_wurst_35_nosub_0.mp4,audios/clip_wurst_35_nosub_0.mp3,audiovisual,408.76178230000005,409.1523391999999,409.35232220000034,409.35232220000034,409.35188116666654,,418.87504549999994,418.65055440000015,[],,418.7493419000002,,,,418.74938530000054,None,,,418.74941800000033,418.7494419000004,None,,,,,,,,320,001,2026-03-31_16h06.21.339,exp_sofc,,2025.2.3,59.41724751971676,2026-03-31 16h06.22.382603 +0200,
,19,0,19,,,,,,,,,,,,,,,,,,,,,,2,2.37322309999945,None,None,,,,,,,,,,,19,0,19,0,418.87504549999994,,,,,,,,,,,,,,,,,,,,,,,,,,,,,,,,,,,,,,,,,,,,,,,clips/clip_hund_16_nosub_1.mp4,audios/clip_hund_16_nosub_1.mp3,audiovisual,418.8718152000001,419.2512516000006,419.4510682,419.4510682,419.45123056666694,430.31823410000015,430.4184694000005,430.31844400000045,[],2,430.4143776000001,430.4184694000005,430.4184694000005,430.4184694000005,432.79669960000047,2,2.37322309999945,None,432.7967607999999,432.79678690000037,None,,,,,,,,320,001,2026-03-31_16h06.21.339,exp_sofc,,2025.2.3,59.41724751971676,2026-03-31 16h06.22.382603 +0200,
,20,0,20,,,,,,,,,,,,,,,,,,,,,,1,3.478015900000173,None,None,,,,,,,,,,,20,0,20,0,432.9006325999999,,,,,,,,,,,,,,,,,,,,,,,,,,,,,,,,,,,,,,,,,,,,,,,clips/clip_weißt_23_nosub_1.mp4,audios/silence.mp3,visual,432.89536040000075,433.30559560000074,433.50623580000047,433.50623580000047,433.50586216666693,434.75813780000044,445.03369740000016,444.92486310000004,[8.322051799999826],1,445.0300485000007,445.03369740000016,445.03369740000016,445.03369740000016,448.5233895000001,1,3.478015900000173,None,448.5234397000004,448.5234595000002,None,,,,,,,,320,001,2026-03-31_16h06.21.339,exp_sofc,,2025.2.3,59.41724751971676,2026-03-31 16h06.22.382603 +0200,
,21,0,21,,,,,,,,,,,,,,,,,,,,,,None,,,None,,,,,,,,,,,21,0,21,0,448.62550680000004,,,,,,,,,,,,,,,,,,,,,,,,,,,,,,,,,,,,,,,,,,,,,,,clips/clip_herz_01_nosub_1.mp4,audios/silence.mp3,visual,448.6209525000004,449.0322120999999,449.23345790000076,449.23345790000076,449.2328999666672,450.4845972000003,460.0296160000007,459.83402600000045,[6.335422900000594],,459.9129984000001,,,,459.91302930000074,None,,,459.91305740000007,459.91307230000075,None,,,,,,,,320,001,2026-03-31_16h06.21.339,exp_sofc,,2025.2.3,59.41724751971676,2026-03-31 16h06.22.382603 +0200,
,22,0,22,,,,,,,,,,,,,,,,,,,,,,4,3.2333724000000075,None,None,,,,,,,,,,,22,0,22,0,460.0296160000007,,,,,,,,,,,,,,,,,,,,,,,,,,,,,,,,,,,,,,,,,,,,,,,clips/clip_holo_07_sub_0.mp4,audios/clip_holo_07_sub_0.mp3,audiovisual,460.0260481000005,460.4247757000003,460.6253794000004,460.6253794000004,460.6252064666671,,470.14276169999994,470.0282476000002,[],4,470.13937930000066,470.14276169999994,470.14276169999994,470.14276169999994,473.3791676000001,4,3.2333724000000075,None,473.37922870000057,473.3792551000006,None,,,,,,,,320,001,2026-03-31_16h06.21.339,exp_sofc,,2025.2.3,59.41724751971676,2026-03-31 16h06.22.382603 +0200,
,23,0,23,,,,,,,,,,,,,,,,,,,,,,None,,,None,,,,,,,,,,,23,0,23,0,473.49864680000064,,,,,,,,,,,,,,,,,,,,,,,,,,,,,,,,,,,,,,,,,,,,,,,clips/clip_hund_23_nosub_1.mp4,audios/clip_hund_23_nosub_1.mp3,audiovisual,473.4947830000001,473.87928830000055,474.07959180000034,474.07959180000034,474.0794927666668,485.21564260000014,485.21564260000014,484.9967008000003,[],,485.09094950000053,,,,485.09097980000024,None,,,485.0910055000004,485.0910207000006,None,,,,,,,,320,001,2026-03-31_16h06.21.339,exp_sofc,,2025.2.3,59.41724751971676,2026-03-31 16h06.22.382603 +0200,
,24,0,24,,,,,,,,,,,,,,,,,,,,,,3,3.926499700000022,None,None,,,,,,,,,,,24,0,24,0,485.21564260000014,,,,,,,,,,,,,,,,,,,,,,,,,,,,,,,,,,,,,,,,,,,,,,,clips/clip_holo_24_sub_2.mp4,audios/clip_holo_24_sub_2.mp3,audiovisual,485.2122804999999,485.5973148000003,485.7982985000008,485.7982985000008,485.79790396666726,495.63009480000073,495.73090330000014,495.6302753,[7.263407899999947],3,495.7256901999999,495.73090330000014,495.73090330000014,495.73090330000014,499.66127959999994,3,3.926499700000022,None,499.66134020000027,499.6613646000005,None,,,,,,,,320,001,2026-03-31_16h06.21.339,exp_sofc,,2025.2.3,59.41724751971676,2026-03-31 16h06.22.382603 +0200,
,25,0,25,,,,,,,,,,,,,,,,,,,,,,None,,,None,,,,,,,,,,,25,0,25,0,499.7750876,,,,,,,,,,,,,,,,,,,,,,,,,,,,,,,,,,,,,,,,,,,,,,,clips/clip_claude_05_sub_2.mp4,audios/clip_claude_05_sub_2.mp3,audiovisual,499.7707012999999,500.17597190000015,500.3765226000005,500.3765226000005,500.3762983666668,,511.89989310000055,511.6780171999999,[4.545804399999724],,511.76789850000023,,,,511.7679295000007,None,,,511.7679573000005,511.76797310000075,None,,,,,,,,320,001,2026-03-31_16h06.21.339,exp_sofc,,2025.2.3,59.41724751971676,2026-03-31 16h06.22.382603 +0200,
,26,0,26,,,,,,,,,,,,,,,,,,,,,,None,,,None,,,,,,,,,,,26,0,26,0,511.89989310000055,,,,,,,,,,,,,,,,,,,,,,,,,,,,,,,,,,,,,,,,,,,,,,,clips/clip_weißt_20_nosub_1.mp4,audios/clip_weißt_20_nosub_1.mp3,audiovisual,511.89597980000053,512.2673914000006,512.4679407000003,512.4679407000003,512.4679241666665,522.3003653000005,522.4965452000006,522.3005594000006,[7.853392400000303],,522.3962442000002,,,,522.3962821000005,None,,,522.3963225000007,522.3963530000001,None,,,,,,,,320,001,2026-03-31_16h06.21.339,exp_sofc,,2025.2.3,59.41724751971676,2026-03-31 16h06.22.382603 +0200,
,27,0,27,,,,,,,,,,,,,,,,,,,,,,None,,,None,,,,,,,,,,,27,0,27,0,522.4965452000006,,,,,,,,,,,,,,,,,,,,,,,,,,,,,,,,,,,,,,,,,,,,,,,clips/clip_wurst_36_sub_0.mp4,audios/silence.mp3,visual,522.4931368000007,522.9090618,523.1094374000004,523.1094374000004,523.1091610666674,524.3613436000005,533.1597263000003,532.9753686000004,[],,533.0656012,,,,533.0656830000007,None,,,533.0657260000007,533.0657445000006,None,,,,,,,,320,001,2026-03-31_16h06.21.339,exp_sofc,,2025.2.3,59.41724751971676,2026-03-31 16h06.22.382603 +0200,
,28,0,28,,,,,,,,,,,,,,,,,,,,,,None,,,None,,,,,,,,,,,28,0,28,0,533.1597263000003,,,,,,,,,,,,,,,,,,,,,,,,,,,,,,,,,,,,,,,,,,,,,,,clips/clip_herz_03_sub_2.mp4,audios/silence.mp3,visual,533.1553790000007,533.5776941000004,533.7779420000006,533.7779420000006,533.7778628666667,535.0300880000004,546.3705359000005,546.1640604000004,"[4.402775699999438, 11.458703599999353]",,546.2553499000005,,,,546.2553892000005,None,,,546.2560068000003,546.2560356000004,None,,,,,,,,320,001,2026-03-31_16h06.21.339,exp_sofc,,2025.2.3,59.41724751971676,2026-03-31 16h06.22.382603 +0200,
,29,0,29,,,,,,,,,,,,,,,,,,,,,,None,,,None,,,,,,,,,,,29,0,29,0,546.3705359000005,,,,,,,,,,,,,,,,,,,,,,,,,,,,,,,,,,,,,,,,,,,,,,,clips/clip_holo_08_sub_2.mp4,audios/silence.mp3,visual,546.3672274999999,546.7567117000008,546.9575785000006,546.9575785000006,546.9571309666674,548.2084044000003,557.9435478000005,557.7404094000003,"[4.327361699999528, 9.487948799999685]",,557.8494465000003,,,,557.8494878000001,None,,,557.8495337000004,557.8495504000002,None,,,,,,,,320,001,2026-03-31_16h06.21.339,exp_sofc,,2025.2.3,59.41724751971676,2026-03-31 16h06.22.382603 +0200,
,30,0,30,,,,,,,,,,,,,,,,,,,,,,None,,,None,,,,,,,,,,,30,0,30,0,557.9435478000005,,,,,,,,,,,,,,,,,,,,,,,,,,,,,,,,,,,,,,,,,,,,,,,clips/clip_wurst_10_sub_2.mp4,audios/silence.mp3,visual,557.9377941000002,558.3491598999999,558.5513246,558.5513246,558.5496350666674,559.8031358000007,567.5606846000001,567.3469264000005,"[4.678243700000166, 7.177187000000231]",,567.4281781,,,,567.4282186999999,None,,,567.4282882000007,567.4283377000002,None,,,,,,,,320,001,2026-03-31_16h06.21.339,exp_sofc,,2025.2.3,59.41724751971676,2026-03-31 16h06.22.382603 +0200,
,31,0,31,,,,,,,,,,,,,,,,,,,,,,None,,,None,,,,,,,,,,,31,0,31,0,567.5606846000001,,,,,,,,,,,,,,,,,,,,,,,,,,,,,,,,,,,,,,,,,,,,,,,clips/clip_weißt_19_nosub_1.mp4,audios/clip_weißt_19_nosub_1.mp3,audiovisual,567.5571657,567.9290799999999,568.1293406000004,568.1293406000004,568.1292560666673,578.1441083,578.3687746000005,578.1442341000002,[],,578.2474222999999,,,,578.2474588000005,None,,,578.2474957000004,578.2475190000005,None,,,,,,,,320,001,2026-03-31_16h06.21.339,exp_sofc,,2025.2.3,59.41724751971676,2026-03-31 16h06.22.382603 +0200,
,32,0,32,,,,,,,,,,,,,,,,,,,,,,None,,,None,,,,,,,,,,,32,0,32,0,578.3687746000005,,,,,,,,,,,,,,,,,,,,,,,,,,,,,,,,,,,,,,,,,,,,,,,clips/clip_hund_13_nosub_1.mp4,audios/clip_hund_13_nosub_1.mp3,audiovisual,578.3653194000008,578.7625237000002,578.9626424000007,578.9626424000007,578.9625513666672,590.7311294000001,590.9431682000004,590.7312980000006,[5.944854500000474],,590.8222131000002,,,,590.8222922000004,None,,,590.8223485000008,590.8223727000004,None,,,,,,,,320,001,2026-03-31_16h06.21.339,exp_sofc,,2025.2.3,59.41724751971676,2026-03-31 16h06.22.382603 +0200,
,33,0,33,,,,,,,,,,,,,,,,,,,,,,2,3.6819494000001214,None,None,,,,,,,,,,,33,0,33,0,590.9431682000004,,,,,,,,,,,,,,,,,,,,,,,,,,,,,,,,,,,,,,,,,,,,,,,clips/clip_weißt_25_sub_1.mp4,audios/clip_weißt_25_sub_1.mp3,audiovisual,590.9391592000002,591.3279167999999,591.5286664000005,591.5286664000005,591.5283389666668,603.5465162999999,603.6498627000001,603.5466812000004,[5.14108589999978],2,603.6464659000003,603.6498627000001,603.6498627000001,603.6498627000001,607.3447855000004,2,3.6819494000001214,None,607.3448451000004,607.3448698000002,None,,,,,,,,320,001,2026-03-31_16h06.21.339,exp_sofc,,2025.2.3,59.41724751971676,2026-03-31 16h06.22.382603 +0200,
,34,0,34,,,,,,,,,,,,,,,,,,,,,,None,,,None,,,,,,,,,,,34,0,34,0,607.4514459000002,,,,,,,,,,,,,,,,,,,,,,,,,,,,,,,,,,,,,,,,,,,,,,,clips/clip_lied_10_nosub_1.mp4,audios/silence.mp3,visual,607.4483233000001,607.8529648000003,608.0538157999999,608.0538157999999,608.0538082666674,609.3052469000004,619.7701718000008,619.5727720000004,[4.34856949999994],,619.6648104000005,,,,619.6648413000003,None,,,619.6648690000002,619.6648840000007,None,,,,,,,,320,001,2026-03-31_16h06.21.339,exp_sofc,,2025.2.3,59.41724751971676,2026-03-31 16h06.22.382603 +0200,
,35,0,35,,,,,,,,,,,,,,,,,,,,,,None,,,None,,,,,,,,,,,35,0,35,0,619.7701718000008,,,,,,,,,,,,,,,,,,,,,,,,,,,,,,,,,,,,,,,,,,,,,,,clips/clip_claude_09_nosub_2.mp4,audios/silence.mp3,visual,619.7643121000001,620.1806665000004,620.3809842999999,620.3644948000001,620.3640416666669,621.6160648000005,630.8378368000003,630.5824550000007,"[3.9764780000004976, 9.016790100000435]",,630.6946883999999,,,,630.6947512000006,None,,,630.6947888000004,630.6948072000005,None,,,,,,,,320,001,2026-03-31_16h06.21.339,exp_sofc,,2025.2.3,59.41724751971676,2026-03-31 16h06.22.382603 +0200,
,36,0,36,,,,,,,,,,,,,,,,,,,,,,None,,,None,,,,,,,,,,,36,0,36,0,630.8378368000003,,,,,,,,,,,,,,,,,,,,,,,,,,,,,,,,,,,,,,,,,,,,,,,clips/clip_hund_24_nosub_1.mp4,audios/clip_hund_24_nosub_1.mp3,audiovisual,630.8324591999999,631.2080057000003,631.4083790000004,631.4083790000004,631.4083206666667,643.629602,643.629602,643.4253026000006,[7.950967000000674],,643.5161361999999,,,,643.5161811000007,None,,,643.516216,643.5162341000005,None,,,,,,,,320,001,2026-03-31_16h06.21.339,exp_sofc,,2025.2.3,59.41724751971676,2026-03-31 16h06.22.382603 +0200,
,37,0,37,,,,,,,,,,,,,,,,,,,,,,None,,,None,,,,,,,,,,,37,0,37,0,643.629602,,,,,,,,,,,,,,,,,,,,,,,,,,,,,,,,,,,,,,,,,,,,,,,clips/clip_claude_07_sub_0.mp4,audios/clip_claude_07_sub_0.mp3,audiovisual,643.6259553,644.0174916000005,644.2180737000008,644.2180737000008,644.2178668666668,654.4328298999999,654.4328298999999,654.2336832999999,[],,654.3279410000005,,,,654.3280322,None,,,654.3280838000001,654.3281036000008,None,,,,,,,,320,001,2026-03-31_16h06.21.339,exp_sofc,,2025.2.3,59.41724751971676,2026-03-31 16h06.22.382603 +0200,
,38,0,38,,,,,,,,,,,,,,,,,,,,,,1,2.5335978000002797,None,None,,,,,,,,,,,38,0,38,0,654.4328298999999,,,,,,,,,,,,,,,,,,,,,,,,,,,,,,,,,,,,,,,,,,,,,,,clips/clip_herz_10_nosub_0.mp4,audios/silence.mp3,visual,654.4281281000003,654.8426177000001,655.0431236000004,655.0431236000004,655.043036166667,656.2952026000003,665.1783740000001,665.0757929000001,[],1,665.1744881000004,665.1783740000001,665.1783740000001,665.1783740000001,667.7213408000007,1,2.5335978000002797,None,667.7213897000001,667.7214071000008,None,,,,,,,,320,001,2026-03-31_16h06.21.339,exp_sofc,,2025.2.3,59.41724751971676,2026-03-31 16h06.22.382603 +0200,
,39,0,39,,,,,,,,,,,,,,,,,,,,,,None,,,None,,,,,,,,,,,39,0,39,0,667.8179174000006,,,,,,,,,,,,,,,,,,,,,,,,,,,,,,,,,,,,,,,,,,,,,,,clips/clip_dampf_01_nosub_0.mp4,audios/silence.mp3,visual,667.8149964000004,668.2300952000005,668.4310123000005,668.4310123000005,668.430327166667,669.6826504999999,678.0690705000006,677.8799017000001,[],,677.9689556000003,,,,677.9690538000004,None,,,677.9690940999999,677.9691114000007,None,,,,,,,,320,001,2026-03-31_16h06.21.339,exp_sofc,,2025.2.3,59.41724751971676,2026-03-31 16h06.22.382603 +0200,
,40,0,40,,,,,,,,,,,,,,,,,,,,,,None,,,None,,,,,,,,,,,40,0,40,0,678.0690705000006,,,,,,,,,,,,,,,,,,,,,,,,,,,,,,,,,,,,,,,,,,,,,,,clips/clip_weißt_13_nosub_0.mp4,audios/silence.mp3,visual,678.0630519000006,678.4685968000003,678.6717318999999,678.6717318999999,678.6689585666666,679.9209766000004,689.7297097999999,689.5035640000006,[11.457466199999544],,689.6055904000004,,,,689.6056333000006,None,,,689.6056679000003,689.6056852000002,None,,,,,,,,320,001,2026-03-31_16h06.21.339,exp_sofc,,2025.2.3,59.41724751971676,2026-03-31 16h06.22.382603 +0200,
,41,0,41,,,,,,,,,,,,,,,,,,,,,,None,,,None,,,,,,,,,,,41,0,41,0,689.7297097999999,,,,,,,,,,,,,,,,,,,,,,,,,,,,,,,,,,,,,,,,,,,,,,,clips/clip_weißt_30_nosub_2.mp4,audios/clip_weißt_30_nosub_2.mp3,audiovisual,689.7260168000003,690.1200398999999,690.3212074000003,690.3212074000003,690.3209611666673,702.3390949000004,702.5205147000006,702.3392196000004,[11.988935699999274],,702.4313444,,,,702.4314267,None,,,702.4314736000006,702.4314939000005,None,,,,,,,,320,001,2026-03-31_16h06.21.339,exp_sofc,,2025.2.3,59.41724751971676,2026-03-31 16h06.22.382603 +0200,
,42,0,42,,,,,,,,,,,,,,,,,,,,,,None,,,None,,,,,,,,,,,42,0,42,0,702.5205147000006,,,,,,,,,,,,,,,,,,,,,,,,,,,,,,,,,,,,,,,,,,,,,,,clips/clip_lied_03_sub_1.mp4,audios/silence.mp3,visual,702.5158945000003,702.9403040000007,703.1411548000005,703.1411548000005,703.140926766667,704.3925156000005,713.8459818000001,713.6740908000002,[4.6955850999993345],,713.7486423,,,,713.7487439000006,None,,,713.7488014,713.7488276000004,None,,,,,,,,320,001,2026-03-31_16h06.21.339,exp_sofc,,2025.2.3,59.41724751971676,2026-03-31 16h06.22.382603 +0200,
,43,0,43,,,,,,,,,,,,,,,,,,,,,,3,4.100645599999552,None,None,,,,,,,,,,,43,0,43,0,713.8459818000001,,,,,,,,,,,,,,,,,,,,,,,,,,,,,,,,,,,,,,,,,,,,,,,clips/clip_herz_09_nosub_0.mp4,audios/silence.mp3,visual,713.8419167000002,714.2580648000003,714.4586201000002,714.4586201000002,714.4584964666667,715.7099008000005,726.0738102000005,725.9761937000003,[],3,726.0701849000006,726.0738102000005,726.0738102000005,726.0738102000005,730.1909971000005,3,4.100645599999552,None,730.1910582999999,730.1910837000005,None,,,,,,,,320,001,2026-03-31_16h06.21.339,exp_sofc,,2025.2.3,59.41724751971676,2026-03-31 16h06.22.382603 +0200,
,44,0,44,,,,,,,,,,,,,,,,,,,,,,None,,,None,,,,,,,,,,,44,0,44,0,730.2973156000007,,,,,,,,,,,,,,,,,,,,,,,,,,,,,,,,,,,,,,,,,,,,,,,clips/clip_weißt_15_sub_1.mp4,audios/clip_weißt_15_sub_1.mp3,audiovisual,730.2934089999999,730.6997099,730.9008441000005,730.9008441000005,730.9002349666673,741.8170661000004,742.0264049000007,741.8172321000002,[],,741.9023170999999,,,,741.9023498000006,None,,,741.9023803,741.9023953000005,None,,,,,,,,320,001,2026-03-31_16h06.21.339,exp_sofc,,2025.2.3,59.41724751971676,2026-03-31 16h06.22.382603 +0200,
,45,0,45,,,,,,,,,,,,,,,,,,,,,,None,,,None,,,,,,,,,,,45,0,45,0,742.0264049000007,,,,,,,,,,,,,,,,,,,,,,,,,,,,,,,,,,,,,,,,,,,,,,,clips/clip_wurst_24_nosub_1.mp4,audios/clip_wurst_24_nosub_1.mp3,audiovisual,742.0228870999999,742.4108530000003,742.6119599000003,742.6119599000003,742.6118147666668,753.9287287000006,754.0956837000003,753.9288954000003,[],,753.9939291999999,,,,753.9939875,None,,,753.9941904000007,753.9942470000005,None,,,,,,,,320,001,2026-03-31_16h06.21.339,exp_sofc,,2025.2.3,59.41724751971676,2026-03-31 16h06.22.382603 +0200,
,46,0,46,,,,,,,,,,,,,,,,,,,,,,1,4.626465100000132,None,None,,,,,,,,,,,46,0,46,0,754.0956837000003,,,,,,,,,,,,,,,,,,,,,,,,,,,,,,,,,,,,,,,,,,,,,,,clips/clip_holo_09_nosub_2.mp4,audios/silence.mp3,visual,754.0931857000005,754.4969359000006,754.6979544000005,754.6979544000005,754.6974635666668,755.949055,766.2583255,766.1483573000005,[],2,766.2543665000003,766.2583255,766.2583255,766.2583255,770.9007184000002,1,4.626465100000132,None,770.9007889000004,770.9008226000005,None,,,,,,,,320,001,2026-03-31_16h06.21.339,exp_sofc,,2025.2.3,59.41724751971676,2026-03-31 16h06.22.382603 +0200,
,47,0,47,,,,,,,,,,,,,,,,,,,,,,2,2.3554573000001255,None,None,,,,,,,,,,,47,0,47,0,771.0186237000007,,,,,,,,,,,,,,,,,,,,,,,,,,,,,,,,,,,,,,,,,,,,,,,clips/clip_lied_16_nosub_2.mp4,audios/clip_lied_16_nosub_2.mp3,audiovisual,771.0144266000007,771.4006425000007,771.6009950000007,771.6009950000007,771.6010399666668,,782.3101375000006,782.2051331000002,[6.99252929999966],2,782.3063538000006,782.3101375000006,782.3101375000006,782.3101375000006,784.6824618999999,2,2.3554573000001255,None,784.6825266000005,784.6825524000005,None,,,,,,,,320,001,2026-03-31_16h06.21.339,exp_sofc,,2025.2.3,59.41724751971676,2026-03-31 16h06.22.382603 +0200,
,48,0,48,,,,,,,,,,,,,,,,,,,,,,None,,,None,,,,,,,,,,,48,0,48,0,784.8165206000003,,,,,,,,,,,,,,,,,,,,,,,,,,,,,,,,,,,,,,,,,,,,,,,clips/clip_hund_08_sub_1.mp4,audios/clip_hund_08_sub_1.mp3,audiovisual,784.8127741000008,785.1845098000003,785.3855039,785.3855039,785.3855421666669,795.4168746000005,795.6319970000004,795.4170360000007,[],,795.5303628000001,,,,795.5304051000003,None,,,795.5304467000005,795.5304663000006,None,,,,,,,,320,001,2026-03-31_16h06.21.339,exp_sofc,,2025.2.3,59.41724751971676,2026-03-31 16h06.22.382603 +0200,
,49,0,49,,,,,,,,,,,,,,,,,,,,,,4,2.763022500000261,None,None,,,,,,,,,,,49,0,49,0,795.6319970000004,,,,,,,,,,,,,,,,,,,,,,,,,,,,,,,,,,,,,,,,,,,,,,,clips/clip_wurst_03_nosub_1.mp4,audios/silence.mp3,visual,795.6279231000008,796.0333931000005,796.2342685000003,796.2342685000003,796.233687666667,797.4869229000005,808.2446576000002,808.1531760000007,[4.181865800000196],4,808.2409972000005,808.2446576000002,808.2446576000002,808.2446576000002,811.0151629000002,4,2.763022500000261,None,811.0152132000003,811.0152321000005,None,,,,,,,,320,001,2026-03-31_16h06.21.339,exp_sofc,,2025.2.3,59.41724751971676,2026-03-31 16h06.22.382603 +0200,
,50,0,50,,,,,,,,,,,,,,,,,,,,,,None,,,None,,,,,,,,,,,50,0,50,0,811.1213716000002,,,,,,,,,,,,,,,,,,,,,,,,,,,,,,,,,,,,,,,,,,,,,,,clips/clip_wurst_34_sub_2.mp4,audios/clip_wurst_34_sub_2.mp3,audiovisual,811.1180191000003,811.5239881000007,811.7246380000006,811.7246380000006,811.7244260666669,820.2547814,820.4744380000002,820.2549477000002,"[4.06589829999939, 7.4664222999999765]",,820.3424232000007,,,,820.3424642,None,,,820.3425002000004,820.3425210000005,None,,,,,,,,320,001,2026-03-31_16h06.21.339,exp_sofc,,2025.2.3,59.41724751971676,2026-03-31 16h06.22.382603 +0200,
,51,0,51,,,,,,,,,,,,,,,,,,,,,,3,3.243623999999727,None,None,,,,,,,,,,,51,0,51,0,820.4744380000002,,,,,,,,,,,,,,,,,,,,,,,,,,,,,,,,,,,,,,,,,,,,,,,clips/clip_wurst_18_nosub_0.mp4,audios/clip_wurst_18_nosub_0.mp3,audiovisual,820.4711104000007,820.8554509000005,821.0561471999999,821.0561471999999,821.0556623666673,831.0883271000002,831.1871347000006,831.0885410000001,[],3,831.183376,831.1871347000006,831.1871347000006,831.1871347000006,834.4352779999999,3,3.243623999999727,None,834.4353357,834.4353615,None,,,,,,,,320,001,2026-03-31_16h06.21.339,exp_sofc,,2025.2.3,59.41724751971676,2026-03-31 16h06.22.382603 +0200,
,52,0,52,,,,,,,,,,,,,,,,,,,,,,None,,,None,,,,,,,,,,,52,0,52,0,834.5359422000001,,,,,,,,,,,,,,,,,,,,,,,,,,,,,,,,,,,,,,,,,,,,,,,clips/clip_weißt_28_nosub_1.mp4,audios/silence.mp3,visual,834.5311505,834.9440838,835.1453992000006,835.1453992000006,835.1445836666674,836.3961386999999,845.4233939000005,845.2273261,"[4.133476999999402, 6.876391499999954]",,845.3162515000004,,,,845.3162821000005,None,,,845.3163088000001,845.3163236999999,None,,,,,,,,320,001,2026-03-31_16h06.21.339,exp_sofc,,2025.2.3,59.41724751971676,2026-03-31 16h06.22.382603 +0200,
,53,0,53,,,,,,,,,,,,,,,,,,,,,,None,,,None,,,,,,,,,,,53,0,53,0,845.4233939000005,,,,,,,,,,,,,,,,,,,,,,,,,,,,,,,,,,,,,,,,,,,,,,,clips/clip_herz_06_nosub_2.mp4,audios/clip_herz_06_nosub_2.mp3,audiovisual,845.4200826000006,845.8195880000003,846.0198840000003,846.0198840000003,846.0192949666673,856.6024262000001,856.7799193999999,856.6026139000005,"[4.769579200000408, 8.174568300000828]",,856.6796434000007,,,,856.6796792000005,None,,,856.6797153000007,856.6797350000006,None,,,,,,,,320,001,2026-03-31_16h06.21.339,exp_sofc,,2025.2.3,59.41724751971676,2026-03-31 16h06.22.382603 +0200,
,54,0,54,,,,,,,,,,,,,,,,,,,,,,None,,,None,,,,,,,,,,,54,0,54,0,856.7799193999999,,,,,,,,,,,,,,,,,,,,,,,,,,,,,,,,,,,,,,,,,,,,,,,clips/clip_wurst_21_sub_0.mp4,audios/silence.mp3,visual,856.7774078000002,857.1865752000003,857.3889632,857.3889632,857.387049066667,858.6390135000001,868.1163602000006,867.9042011000001,[],,868.0006927000004,,,,868.0007540000006,None,,,868.0008089000003,868.0008356000008,None,,,,,,,,320,001,2026-03-31_16h06.21.339,exp_sofc,,2025.2.3,59.41724751971676,2026-03-31 16h06.22.382603 +0200,
,55,0,55,,,,,,,,,,,,,,,,,,,,,,None,,,None,,,,,,,,,,,55,0,55,0,868.1163602000006,,,,,,,,,,,,,,,,,,,,,,,,,,,,,,,,,,,,,,,,,,,,,,,clips/clip_lied_20_sub_2.mp4,audios/clip_lied_20_sub_2.mp3,audiovisual,868.1130954,868.5008717999999,868.7013896000008,868.7013896000008,868.7012542666673,,879.5800195000002,879.3856904000004,"[3.836534400000346, 8.903405900000507]",,879.4780159000002,,,,879.4781078000005,None,,,879.4781639000003,879.4781898000001,None,,,,,,,,320,001,2026-03-31_16h06.21.339,exp_sofc,,2025.2.3,59.41724751971676,2026-03-31 16h06.22.382603 +0200,
,56,0,56,,,,,,,,,,,,,,,,,,,,,,None,,,None,,,,,,,,,,,56,0,56,0,879.5800195000002,,,,,,,,,,,,,,,,,,,,,,,,,,,,,,,,,,,,,,,,,,,,,,,clips/clip_claude_18_nosub_0.mp4,audios/silence.mp3,visual,879.5756078000004,879.9771255000005,880.1778890000005,880.1778890000005,880.1776979666668,881.4293787000006,889.4039266,889.2082619000003,[],,889.3012470000003,,,,889.3012856000005,None,,,889.3013231000004,889.3013434000004,None,,,,,,,,320,001,2026-03-31_16h06.21.339,exp_sofc,,2025.2.3,59.41724751971676,2026-03-31 16h06.22.382603 +0200,
,57,0,57,,,,,,,,,,,,,,,,,,,,,,None,,,None,,,,,,,,,,,57,0,57,0,889.4039266,,,,,,,,,,,,,,,,,,,,,,,,,,,,,,,,,,,,,,,,,,,,,,,clips/clip_herz_08_sub_0.mp4,audios/silence.mp3,visual,889.4012591000001,889.8006625000007,890.0012137000003,890.0012137000003,890.0009037666671,891.2531262000002,902.2006197000001,902.0205098000006,"[5.390439500000866, 10.402302700000291]",,902.1096935000005,,,,902.1097358000006,None,,,902.1097792999999,902.1098037000002,None,,,,,,,,320,001,2026-03-31_16h06.21.339,exp_sofc,,2025.2.3,59.41724751971676,2026-03-31 16h06.22.382603 +0200,
,58,0,58,,,,,,,,,,,,,,,,,,,,,,None,,,None,,,,,,,,,,,58,0,58,0,902.2006197000001,,,,,,,,,,,,,,,,,,,,,,,,,,,,,,,,,,,,,,,,,,,,,,,clips/clip_herz_11_nosub_0.mp4,audios/silence.mp3,visual,902.1953463,902.6206917,902.8215847000001,902.8215847000001,902.8214102666673,904.0744236,912.3083991000003,912.1192695,[4.894265299999461],,912.2009852000001,,,,912.2010183000002,None,,,912.2010556000005,912.2010740000005,None,,,,,,,,320,001,2026-03-31_16h06.21.339,exp_sofc,,2025.2.3,59.41724751971676,2026-03-31 16h06.22.382603 +0200,
,59,0,59,,,,,,,,,,,,,,,,,,,,,,None,,,space,3.138859400000001,None,,,,,,,,,59,0,59,0,912.3083991000003,,,,,,,,,,,,,,,,,,,,,,,,,,,,,,,,,,,,,,,,,,,,,,,clips/clip_hund_17_sub_1.mp4,audios/clip_hund_17_sub_1.mp3,audiovisual,912.3050210000001,912.7096142,912.9109939,912.9109939,912.9108765666672,,925.2934676000004,925.1957623000008,[10.310730199999853],,925.2874308,,,,925.2874780000002,None,,,925.2875129000004,928.4433330000002,space,925.2934676000004,925.2934676000004,925.2934676000004,3.138859400000001,None,,,320,001,2026-03-31_16h06.21.339,exp_sofc,,2025.2.3,59.41724751971676,2026-03-31 16h06.22.382603 +0200,
,60,0,60,,,,,,,,,,,,,,,,,,,,,,4,5.470446600000287,None,None,,,,,,,,,,,60,0,60,0,928.5639700000002,,,,,,,,,,,,,,,,,,,,,,,,,,,,,,,,,,,,,,,,,,,,,,,clips/clip_holo_14_sub_0.mp4,audios/clip_holo_14_sub_0.mp3,audiovisual,928.5596421,928.9447518000006,929.1446715000002,929.1446715000002,929.1442279666674,939.1764697000008,939.2760351000006,939.1766465999999,[],4,939.2725235000007,939.2760351000006,939.2760351000006,939.2760351000006,944.7600380000003,4,5.470446600000287,None,944.7601056000003,944.7601416000007,None,,,,,,,,320,001,2026-03-31_16h06.21.339,exp_sofc,,2025.2.3,59.41724751971676,2026-03-31 16h06.22.382603 +0200,
,61,0,61,,,,,,,,,,,,,,,,,,,,,,None,,,None,,,,,,,,,,,61,0,61,0,944.8516694,,,,,,,,,,,,,,,,,,,,,,,,,,,,,,,,,,,,,,,,,,,,,,,clips/clip_wurst_31_nosub_1.mp4,audios/silence.mp3,visual,944.8481813000008,945.2689203,945.4699281000003,945.4699281000003,945.4694930666667,946.7208596,956.6752759000001,956.5032713999999,[],,956.5847512999999,,,,956.5847839000007,None,,,956.5848162000002,956.5848304000001,None,,,,,,,,320,001,2026-03-31_16h06.21.339,exp_sofc,,2025.2.3,59.41724751971676,2026-03-31 16h06.22.382603 +0200,
,62,0,62,,,,,,,,,,,,,,,,,,,,,,None,,,None,,,,,,,,,,,62,0,62,0,956.6752759000001,,,,,,,,,,,,,,,,,,,,,,,,,,,,,,,,,,,,,,,,,,,,,,,clips/clip_wurst_26_nosub_1.mp4,audios/silence.mp3,visual,956.6715842000003,957.0868037,957.2877701000007,957.2877701000007,957.2871040666671,958.5397198999999,969.4748570000002,969.3066206000003,[10.105534000000262],,969.3803620000008,,,,969.3803987000001,None,,,969.3804419000007,969.3804864000003,None,,,,,,,,320,001,2026-03-31_16h06.21.339,exp_sofc,,2025.2.3,59.41724751971676,2026-03-31 16h06.22.382603 +0200,
,63,0,63,,,,,,,,,,,,,,,,,,,,,,None,,,None,,,,,,,,,,,63,0,63,0,969.4748570000002,,,,,,,,,,,,,,,,,,,,,,,,,,,,,,,,,,,,,,,,,,,,,,,clips/clip_wurst_12_sub_0.mp4,audios/clip_wurst_12_sub_0.mp3,audiovisual,969.4710995000005,969.8904449000001,970.0909412000001,970.0909412000001,970.0908746666667,978.7215482000001,978.9113159000008,978.7217834000003,[],,978.8038743000006,,,,978.8039389000005,None,,,978.8039856000005,978.8040096000004,None,,,,,,,,320,001,2026-03-31_16h06.21.339,exp_sofc,,2025.2.3,59.41724751971676,2026-03-31 16h06.22.382603 +0200,
,64,0,64,,,,,,,,,,,,,,,,,,,,,,None,,,None,,,,,,,,,,,64,0,64,0,978.9113159000008,,,,,,,,,,,,,,,,,,,,,,,,,,,,,,,,,,,,,,,,,,,,,,,clips/clip_weißt_07_sub_1.mp4,audios/silence.mp3,visual,978.908794,979.3130226000003,979.513715,979.513715,979.5134666666665,980.7653586000006,989.4448240000002,989.2459978000006,[3.8853652999996484],,989.3378075999999,,,,989.3378708,None,,,989.3379124000003,989.3379311000008,None,,,,,,,,320,001,2026-03-31_16h06.21.339,exp_sofc,,2025.2.3,59.41724751971676,2026-03-31 16h06.22.382603 +0200,
,65,0,65,,,,,,,,,,,,,,,,,,,,,,None,,,None,,,,,,,,,,,65,0,65,0,989.4448240000002,,,,,,,,,,,,,,,,,,,,,,,,,,,,,,,,,,,,,,,,,,,,,,,clips/clip_holo_15_sub_0.mp4,audios/clip_holo_15_sub_0.mp3,audiovisual,989.4406542000006,989.8376533,990.0380798000006,990.0380798000006,990.0378613666674,999.4276482000005,999.4276482000005,999.2443728000007,[6.765797199999724],,999.3269934,,,,999.3270314000001,None,,,999.3270886,999.3271347,None,,,,,,,,320,001,2026-03-31_16h06.21.339,exp_sofc,,2025.2.3,59.41724751971676,2026-03-31 16h06.22.382603 +0200,
,66,0,66,,,,,,,,,,,,,,,,,,,,,,None,,,None,,,,,,,,,,,66,0,66,0,999.4276482000005,,,,,,,,,,,,,,,,,,,,,,,,,,,,,,,,,,,,,,,,,,,,,,,clips/clip_wurst_05_sub_0.mp4,audios/silence.mp3,visual,999.4232875000007,999.8284555,1000.0291239000007,1000.0291239000007,1000.0291052666673,1001.2804247000004,1008.9383330999999,1008.7261377000004,[],,1008.8183008000005,,,,1008.8183791000001,None,,,1008.8184293000004,1008.8184485000002,None,,,,,,,,320,001,2026-03-31_16h06.21.339,exp_sofc,,2025.2.3,59.41724751971676,2026-03-31 16h06.22.382603 +0200,
,67,0,67,,,,,,,,,,,,,,,,,,,,,,None,,,None,,,,,,,,,,,67,0,67,0,1008.9383330999999,,,,,,,,,,,,,,,,,,,,,,,,,,,,,,,,,,,,,,,,,,,,,,,clips/clip_claude_11_sub_0.mp4,audios/clip_claude_11_sub_0.mp3,audiovisual,1008.9345079000004,1009.322725,1009.5230992000006,1009.5230992000006,1009.522882866667,1019.5561407000005,1019.7265749000007,1019.5563281000004,[],,1019.6304047000003,,,,1019.6304405999999,None,,,1019.6305154000001,1019.6305399000003,None,,,,,,,,320,001,2026-03-31_16h06.21.339,exp_sofc,,2025.2.3,59.41724751971676,2026-03-31 16h06.22.382603 +0200,
,68,0,68,,,,,,,,,,,,,,,,,,,,,,None,,,None,,,,,,,,,,,68,0,68,0,1019.7265749000007,,,,,,,,,,,,,,,,,,,,,,,,,,,,,,,,,,,,,,,,,,,,,,,clips/clip_dampf_06_nosub_2.mp4,audios/silence.mp3,visual,1019.7216647000005,1020.1393597000006,1020.3399053000003,1020.3399053000003,1020.3396944666667,1021.5918657000002,1029.5584908,1029.3707314000003,[],,1029.4584059,,,,1029.4584402,None,,,1029.4585000000006,1029.4585443000005,None,,,,,,,,320,001,2026-03-31_16h06.21.339,exp_sofc,,2025.2.3,59.41724751971676,2026-03-31 16h06.22.382603 +0200,
,69,0,69,,,,,,,,,,,,,,,,,,,,,,None,,,None,,,,,,,,,,,69,0,69,0,1029.5584908,,,,,,,,,,,,,,,,,,,,,,,,,,,,,,,,,,,,,,,,,,,,,,,clips/clip_claude_26_nosub_0.mp4,audios/silence.mp3,visual,1029.5548478,1029.9597402,1030.1604004,1030.1604004,1030.1604412666668,1031.4123762,1041.2690848000002,1041.0781020000004,[4.504364899999928],,1041.1632257,,,,1041.1632996000008,None,,,1041.1633454000003,1041.1633628,None,,,,,,,,320,001,2026-03-31_16h06.21.339,exp_sofc,,2025.2.3,59.41724751971676,2026-03-31 16h06.22.382603 +0200,
,70,0,70,,,,,,,,,,,,,,,,,,,,,,3,3.6838879999995697,None,None,,,,,,,,,,,70,0,70,0,1041.2690848000002,,,,,,,,,,,,,,,,,,,,,,,,,,,,,,,,,,,,,,,,,,,,,,,clips/clip_hund_15_nosub_1.mp4,audios/silence.mp3,visual,1041.2638513000002,1041.6692908000005,1041.8706369000001,1041.8706369000001,1041.869956366667,1043.1215858000005,1052.4183003000007,1052.3195079000006,"[1.5845241999995778, 4.948466099999678]",3,1052.4148234000004,1052.4183003000007,1052.4183003000007,1052.4183003000007,1056.1178985000006,3,3.6838879999995697,None,1056.1179583000003,1056.1179834000004,None,,,,,,,,320,001,2026-03-31_16h06.21.339,exp_sofc,,2025.2.3,59.41724751971676,2026-03-31 16h06.22.382603 +0200,
,71,0,71,,,,,,,,,,,,,,,,,,,,,,None,,,None,,,,,,,,,,,71,0,71,0,1056.2190564000002,,,,,,,,,,,,,,,,,,,,,,,,,,,,,,,,,,,,,,,,,,,,,,,clips/clip_holo_11_nosub_2.mp4,audios/silence.mp3,visual,1056.2152130000004,1056.6267877,1056.8267406000004,1056.8267406000004,1056.8263188666672,1058.0788106,1066.6712443000006,1066.4747804000008,"[5.4764111999993474, 8.917960799999491]",,1066.5736773000008,,,,1066.5737083000004,None,,,1066.5737355,1066.5737535000007,None,,,,,,,,320,001,2026-03-31_16h06.21.339,exp_sofc,,2025.2.3,59.41724751971676,2026-03-31 16h06.22.382603 +0200,
,72,0,72,,,,,,,,,,,,,,,,,,,,,,None,,,None,,,,,,,,,,,72,0,72,0,1066.6712443000006,,,,,,,,,,,,,,,,,,,,,,,,,,,,,,,,,,,,,,,,,,,,,,,clips/clip_claude_22_nosub_2.mp4,audios/silence.mp3,visual,1066.6651920000004,1067.0845361000002,1067.2854868000004,1067.2854868000004,1067.2849498666667,1068.5361157000007,1078.2607673000002,1078.0355150000005,[7.97344720000001],,1078.1243057000001,,,,1078.1243412000003,None,,,1078.1243778000007,1078.1243979,None,,,,,,,,320,001,2026-03-31_16h06.21.339,exp_sofc,,2025.2.3,59.41724751971676,2026-03-31 16h06.22.382603 +0200,
,73,0,73,,,,,,,,,,,,,,,,,,,,,,None,,,None,,,,,,,,,,,73,0,73,0,1078.2607673000002,,,,,,,,,,,,,,,,,,,,,,,,,,,,,,,,,,,,,,,,,,,,,,,clips/clip_herz_07_nosub_2.mp4,audios/clip_herz_07_nosub_2.mp3,audiovisual,1078.2570083,1078.6356474000004,1078.8366080000005,1078.8366080000005,1078.8360767666666,1091.0387276000001,1091.0387276000001,1090.8552611000005,"[4.305489499999567, 10.78813319999972]",,1090.9373217000002,,,,1090.9373662000007,None,,,1090.9374276000008,1090.9374630000002,None,,,,,,,,320,001,2026-03-31_16h06.21.339,exp_sofc,,2025.2.3,59.41724751971676,2026-03-31 16h06.22.382603 +0200,
,74,0,74,,,,,,,,,,,,,,,,,,,,,,None,,,None,,,,,,,,,,,74,0,74,0,1091.0387276000001,,,,,,,,,,,,,,,,,,,,,,,,,,,,,,,,,,,,,,,,,,,,,,,clips/clip_holo_04_sub_2.mp4,audios/clip_holo_04_sub_2.mp3,audiovisual,1091.0352122000004,1091.4400876,1091.6422009000007,1091.6422009000007,1091.6402832666674,1103.6587600000003,1103.8349966000005,1103.6589151000007,"[3.149591800000053, 7.270028800000546]",,1103.7394453000006,,,,1103.739512,None,,,1103.7396126000003,1103.7396417,None,,,,,,,,320,001,2026-03-31_16h06.21.339,exp_sofc,,2025.2.3,59.41724751971676,2026-03-31 16h06.22.382603 +0200,
,75,0,75,,,,,,,,,,,,,,,,,,,,,,None,,,None,,,,,,,,,,,75,0,75,0,1103.8349966000005,,,,,,,,,,,,,,,,,,,,,,,,,,,,,,,,,,,,,,,,,,,,,,,clips/clip_hund_27_sub_1.mp4,audios/silence.mp3,visual,1103.8317352000004,1104.2432865,1104.4449608000004,1104.4449608000004,1104.4435069666672,1105.6953510000003,1114.8566945000002,1114.6604145000001,[4.5695488999999725],,1114.7617072000003,,,,1114.7617451000006,None,,,1114.7617853000002,1114.761805,None,,,,,,,,320,001,2026-03-31_16h06.21.339,exp_sofc,,2025.2.3,59.41724751971676,2026-03-31 16h06.22.382603 +0200,
,76,0,76,,,,,,,,,,,,,,,,,,,,,,None,,,None,,,,,,,,,,,76,0,76,0,1114.8566945000002,,,,,,,,,,,,,,,,,,,,,,,,,,,,,,,,,,,,,,,,,,,,,,,clips/clip_hund_36_sub_2.mp4,audios/silence.mp3,visual,1114.8535954,1115.2690860000002,1115.4701761000006,1115.4701761000006,1115.4696896666667,1116.7214810000005,1124.8456558000007,1124.6345105999999,[5.798467900000105],,1124.7279186000005,,,,1124.7279549000004,None,,,1124.7280036000002,1124.7280463000006,None,,,,,,,,320,001,2026-03-31_16h06.21.339,exp_sofc,,2025.2.3,59.41724751971676,2026-03-31 16h06.22.382603 +0200,
,77,0,77,,,,,,,,,,,,,,,,,,,,,,None,,,None,,,,,,,,,,,77,0,77,0,1124.8456558000007,,,,,,,,,,,,,,,,,,,,,,,,,,,,,,,,,,,,,,,,,,,,,,,clips/clip_claude_25_sub_0.mp4,audios/clip_claude_25_sub_0.mp3,audiovisual,1124.8418359000007,1125.2303328000007,1125.4302842000006,1125.4302842000006,1125.429981266667,,1135.8048141,1135.6132975,[],,1135.7063757000005,,,,1135.7064222,None,,,1135.7064539000003,1135.7064779000002,None,,,,,,,,320,001,2026-03-31_16h06.21.339,exp_sofc,,2025.2.3,59.41724751971676,2026-03-31 16h06.22.382603 +0200,
,78,0,78,,,,,,,,,,,,,,,,,,,,,,None,,,None,,,,,,,,,,,78,0,78,0,1135.8048141,,,,,,,,,,,,,,,,,,,,,,,,,,,,,,,,,,,,,,,,,,,,,,,clips/clip_holo_05_nosub_2.mp4,audios/silence.mp3,visual,1135.8008367000002,1136.2220791,1136.4231747000003,1136.4231747000003,1136.4221591666667,1137.6739889,1145.7557373,1145.5545831,[7.067601300000206],,1145.6422594000005,,,,1145.6423213000007,None,,,1145.6423717000007,1145.6423887,None,,,,,,,,320,001,2026-03-31_16h06.21.339,exp_sofc,,2025.2.3,59.41724751971676,2026-03-31 16h06.22.382603 +0200,
,79,0,79,,,,,,,,,,,,,,,,,,,,,,None,,,None,,,,,,,,,,,79,0,79,0,1145.7557373,,,,,,,,,,,,,,,,,,,,,,,,,,,,,,,,,,,,,,,,,,,,,,,clips/clip_herz_17_nosub_0.mp4,audios/clip_herz_17_nosub_0.mp3,audiovisual,1145.7522972000006,1146.1461422000002,1146.3460475000002,1146.3460475000002,1146.3457996666668,1154.7526524000004,1154.7526524000004,1154.5586746,[5.951984599999378],,1154.6417543000007,,,,1154.6418267,None,,,1154.6418773000005,1154.6419032000003,None,,,,,,,,320,001,2026-03-31_16h06.21.339,exp_sofc,,2025.2.3,59.41724751971676,2026-03-31 16h06.22.382603 +0200,
,80,0,80,,,,,,,,,,,,,,,,,,,,,,None,,,None,,,,,,,,,,,80,0,80,0,1154.7526524000004,,,,,,,,,,,,,,,,,,,,,,,,,,,,,,,,,,,,,,,,,,,,,,,clips/clip_wurst_07_sub_0.mp4,audios/clip_wurst_07_sub_0.mp3,audiovisual,1154.7487752000006,1155.1514207,1155.3535255000006,1155.3535255000006,1155.3515321666666,1165.3836427000006,1165.5985945000002,1165.3838421,[],,1165.4705738000002,,,,1165.4706292,None,,,1165.4706702000003,1165.4706926,None,,,,,,,,320,001,2026-03-31_16h06.21.339,exp_sofc,,2025.2.3,59.41724751971676,2026-03-31 16h06.22.382603 +0200,
,81,0,81,,,,,,,,,,,,,,,,,,,,,,None,,,None,,,,,,,,,,,81,0,81,0,1165.5985945000002,,,,,,,,,,,,,,,,,,,,,,,,,,,,,,,,,,,,,,,,,,,,,,,clips/clip_hund_10_nosub_0.mp4,audios/clip_hund_10_nosub_0.mp3,audiovisual,1165.5951940000004,1165.9838451000005,1166.1839170000003,1166.1839170000003,1166.183881766667,1175.7156743000005,1175.9195632,1175.7158622000006,[8.260260600000038],,1175.8163613000006,,,,1175.8164569,None,,,1175.8165206000003,1175.8165461000008,None,,,,,,,,320,001,2026-03-31_16h06.21.339,exp_sofc,,2025.2.3,59.41724751971676,2026-03-31 16h06.22.382603 +0200,
,82,0,82,,,,,,,,,,,,,,,,,,,,,,None,,,None,,,,,,,,,,,82,0,82,0,1175.9195632,,,,,,,,,,,,,,,,,,,,,,,,,,,,,,,,,,,,,,,,,,,,,,,clips/clip_holo_01_nosub_1.mp4,audios/clip_holo_01_nosub_1.mp3,audiovisual,1175.9157324000007,1176.3245544000001,1176.5264373,1176.5264373,1176.5246057666666,,1185.9509470000003,1185.7259988000005,[4.2686989999992875],,1185.8211909000001,,,,1185.8212284,None,,,1185.8212645000003,1185.8213021000001,None,,,,,,,,320,001,2026-03-31_16h06.21.339,exp_sofc,,2025.2.3,59.41724751971676,2026-03-31 16h06.22.382603 +0200,
,83,0,83,,,,,,,,,,,,,,,,,,,,,,None,,,None,,,,,,,,,,,83,0,83,0,1185.9509470000003,,,,,,,,,,,,,,,,,,,,,,,,,,,,,,,,,,,,,,,,,,,,,,,clips/clip_hund_20_nosub_0.mp4,audios/clip_hund_20_nosub_0.mp3,audiovisual,1185.9470140000003,1186.3230186,1186.5235142000001,1186.5235142000001,1186.5232629666673,1198.0413459000001,1198.2605408,1198.0414924000006,[],,1198.1438347000003,,,,1198.1438805000007,None,,,1198.1439303000006,1198.1439537000006,None,,,,,,,,320,001,2026-03-31_16h06.21.339,exp_sofc,,2025.2.3,59.41724751971676,2026-03-31 16h06.22.382603 +0200,
,84,0,84,,,,,,,,,,,,,,,,,,,,,,None,,,None,,,,,,,,,,,84,0,84,0,1198.2605408,,,,,,,,,,,,,,,,,,,,,,,,,,,,,,,,,,,,,,,,,,,,,,,clips/clip_weißt_26_nosub_1.mp4,audios/clip_weißt_26_nosub_1.mp3,audiovisual,1198.2567086,1198.6595233000007,1198.8594422000006,1198.8594422000006,1198.8593146666674,1209.0748008,1209.2597910000004,1209.0749245000006,[7.300769299999956],,1209.1714876000005,,,,1209.171523,None,,,1209.1715648,1209.171601,None,,,,,,,,320,001,2026-03-31_16h06.21.339,exp_sofc,,2025.2.3,59.41724751971676,2026-03-31 16h06.22.382603 +0200,
,85,0,85,,,,,,,,,,,,,,,,,,,,,,1,3.4821517999998832,None,None,,,,,,,,,,,85,0,85,0,1209.2597910000004,,,,,,,,,,,,,,,,,,,,,,,,,,,,,,,,,,,,,,,,,,,,,,,clips/clip_weißt_12_nosub_1.mp4,audios/silence.mp3,visual,1209.255314,1209.6778672,1209.8781204000006,1209.8781204000006,1209.8779094666672,1211.1307445000002,1221.8976918000008,1221.7976086000008,[9.019605200000115],1,1221.8941737000005,1221.8976918000008,1221.8976918000008,1221.8976918000008,1225.3940783000007,1,3.4821517999998832,None,1225.3941363000004,1225.3941593,None,,,,,,,,320,001,2026-03-31_16h06.21.339,exp_sofc,,2025.2.3,59.41724751971676,2026-03-31 16h06.22.382603 +0200,
,86,0,86,,,,,,,,,,,,,,,,,,,,,,None,,,None,,,,,,,,,,,86,0,86,0,1225.5225575000004,,,,,,,,,,,,,,,,,,,,,,,,,,,,,,,,,,,,,,,,,,,,,,,clips/clip_wurst_32_nosub_1.mp4,audios/clip_wurst_32_nosub_1.mp3,audiovisual,1225.518435,1225.8945899999999,1226.0952272000004,1226.0952272000004,1226.0952309666666,1236.9044449000003,1236.9044449000003,1236.7113339000007,[7.084158000000571],,1236.7952253000003,,,,1236.7952534000005,None,,,1236.7952782000002,1236.7952928000004,None,,,,,,,,320,001,2026-03-31_16h06.21.339,exp_sofc,,2025.2.3,59.41724751971676,2026-03-31 16h06.22.382603 +0200,
,87,0,87,,,,,,,,,,,,,,,,,,,,,,2,3.8247411000002103,None,None,,,,,,,,,,,87,0,87,0,1236.9044449000003,,,,,,,,,,,,,,,,,,,,,,,,,,,,,,,,,,,,,,,,,,,,,,,clips/clip_hund_12_sub_1.mp4,audios/clip_hund_12_sub_1.mp3,audiovisual,1236.9004624,1237.3039397000002,1237.5053779,1237.5053779,1237.5048215666668,1248.8320359,1248.8320359,1248.7218481,[9.919166599999699],2,1248.8287706,1248.8320359,1248.8320359,1248.8320359,1252.6733764,2,3.8247411000002103,None,1252.6734340000003,1252.6734592000003,None,,,,,,,,320,001,2026-03-31_16h06.21.339,exp_sofc,,2025.2.3,59.41724751971676,2026-03-31 16h06.22.382603 +0200,
,88,0,88,,,,,,,,,,,,,,,,,,,,,,None,,,None,,,,,,,,,,,88,0,88,0,1252.7834107000008,,,,,,,,,,,,,,,,,,,,,,,,,,,,,,,,,,,,,,,,,,,,,,,clips/clip_wurst_30_sub_1.mp4,audios/clip_wurst_30_sub_1.mp3,audiovisual,1252.7795205000002,1253.1848173000008,1253.3857205000004,1253.3857205000004,1253.3853526666674,1263.4184043000005,1263.6333903000004,1263.4185693,[],,1263.5156755000007,,,,1263.5157073999999,None,,,1263.5157361000001,1263.5157511000007,None,,,,,,,,320,001,2026-03-31_16h06.21.339,exp_sofc,,2025.2.3,59.41724751971676,2026-03-31 16h06.22.382603 +0200,
,89,0,89,,,,,,,,,,,,,,,,,,,,,,None,,,None,,,,,,,,,,,89,0,89,0,1263.6333903000004,,,,,,,,,,,,,,,,,,,,,,,,,,,,,,,,,,,,,,,,,,,,,,,clips/clip_wurst_25_sub_1.mp4,audios/clip_wurst_25_sub_1.mp3,audiovisual,1263.6296547000002,1264.0178179000004,1264.218226,1264.218226,1264.2180449666669,1275.6481234000003,1275.6481234000003,1275.4371196000002,[],,1275.529673,,,,1275.5297298000005,None,,,1275.5297688,1275.5297875000006,None,,,,,,,,320,001,2026-03-31_16h06.21.339,exp_sofc,,2025.2.3,59.41724751971676,2026-03-31 16h06.22.382603 +0200,
,90,0,90,,,,,,,,,,,,,,,,,,,,,,None,,,None,,,,,,,,,,,90,0,90,0,1275.6481234000003,,,,,,,,,,,,,,,,,,,,,,,,,,,,,,,,,,,,,,,,,,,,,,,clips/clip_weißt_16_nosub_0.mp4,audios/clip_weißt_16_nosub_0.mp3,audiovisual,1275.6446917000003,1276.0326012000005,1276.2332451000002,1276.2332451000002,1276.2332068666667,1286.7490404,1286.9463337000007,1286.7491936000006,[],,1286.8538557000002,,,,1286.8539150000006,None,,,1286.8539590999999,1286.8539804000002,None,,,,,,,,320,001,2026-03-31_16h06.21.339,exp_sofc,,2025.2.3,59.41724751971676,2026-03-31 16h06.22.382603 +0200,
,91,0,91,,,,,,,,,,,,,,,,,,,,,,None,,,None,,,,,,,,,,,91,0,91,0,1286.9463337000007,,,,,,,,,,,,,,,,,,,,,,,,,,,,,,,,,,,,,,,,,,,,,,,clips/clip_wurst_27_sub_1.mp4,audios/silence.mp3,visual,1286.9423385,1287.3585228000002,1287.5593158000001,1287.5593158000001,1287.5591676666666,1288.8108288000003,1297.9668295000001,1297.7601858000007,[5.943215899999814],,1297.8447517000004,,,,1297.844787,None,,,1297.8448198000006,1297.8448491,None,,,,,,,,320,001,2026-03-31_16h06.21.339,exp_sofc,,2025.2.3,59.41724751971676,2026-03-31 16h06.22.382603 +0200,
,92,0,92,,,,,,,,,,,,,,,,,,,,,,None,,,None,,,,,,,,,,,92,0,92,0,1297.9668295000001,,,,,,,,,,,,,,,,,,,,,,,,,,,,,,,,,,,,,,,,,,,,,,,clips/clip_claude_23_nosub_0.mp4,audios/clip_claude_23_nosub_0.mp3,audiovisual,1297.9633478000005,1298.3512323000004,1298.5529843000004,1298.5529843000004,1298.5523554666672,1310.9013697,1310.9013697,1310.7048258000004,[],,1310.7880073000006,,,,1310.7880717000007,None,,,1310.7881189,1310.7881504000006,None,,,,,,,,320,001,2026-03-31_16h06.21.339,exp_sofc,,2025.2.3,59.41724751971676,2026-03-31 16h06.22.382603 +0200,
,93,0,93,,,,,,,,,,,,,,,,,,,,,,None,,,None,,,,,,,,,,,93,0,93,0,1310.9013697,,,,,,,,,,,,,,,,,,,,,,,,,,,,,,,,,,,,,,,,,,,,,,,clips/clip_herz_12_sub_0.mp4,audios/clip_herz_12_sub_0.mp3,audiovisual,1310.8979838000005,1311.2964555000008,1311.4968242000004,1311.4968242000004,1311.496727566667,,1320.7904865,1320.6018147000004,[6.045947800000249],,1320.6798291000005,,,,1320.6798661000003,None,,,1320.6799044,1320.6799273000006,None,,,,,,,,320,001,2026-03-31_16h06.21.339,exp_sofc,,2025.2.3,59.41724751971676,2026-03-31 16h06.22.382603 +0200,
,94,0,94,,,,,,,,,,,,,,,,,,,,,,None,,,None,,,,,,,,,,,94,0,94,0,1320.7904865,,,,,,,,,,,,,,,,,,,,,,,,,,,,,,,,,,,,,,,,,,,,,,,clips/clip_lied_06_sub_1.mp4,audios/clip_lied_06_sub_1.mp3,audiovisual,1320.7870906000007,1321.1865660000003,1321.3871584000008,1321.3871584000008,1321.3869115666669,1334.2040568000002,1334.2040568000002,1334.0076262000002,[],,1334.0975135000008,,,,1334.0975512000005,None,,,1334.0975858000002,1334.0976069000008,None,,,,,,,,320,001,2026-03-31_16h06.21.339,exp_sofc,,2025.2.3,59.41724751971676,2026-03-31 16h06.22.382603 +0200,
,95,0,95,,,,,,,,,,,,,,,,,,,,,,None,,,None,,,,,,,,,,,95,0,95,0,1334.2040568000002,,,,,,,,,,,,,,,,,,,,,,,,,,,,,,,,,,,,,,,,,,,,,,,clips/clip_claude_29_sub_0.mp4,audios/silence.mp3,visual,1334.1998142000002,1334.5990709000007,1334.7996709,1334.7996709,1334.7996704666668,1336.0518522000002,1345.0178920000008,1344.8319966,[],,1344.9163108000002,,,,1344.9163563000002,None,,,1344.9164221,1344.9164542000008,None,,,,,,,,320,001,2026-03-31_16h06.21.339,exp_sofc,,2025.2.3,59.41724751971676,2026-03-31 16h06.22.382603 +0200,
,96,0,96,,,,,,,,,,,,,,,,,,,,,,None,,,None,,,,,,,,,,,96,0,96,0,1345.0178920000008,,,,,,,,,,,,,,,,,,,,,,,,,,,,,,,,,,,,,,,,,,,,,,,clips/clip_weißt_17_sub_0.mp4,audios/silence.mp3,visual,1345.0140862000007,1345.4189462000004,1345.6196444000007,1345.6196444000007,1345.6195682666669,1346.871411,1357.3290365000003,1357.1384725000007,[],,1357.2141152000004,,,,1357.2141586000007,None,,,1357.2142055000004,1357.2142288000005,None,,,,,,,,320,001,2026-03-31_16h06.21.339,exp_sofc,,2025.2.3,59.41724751971676,2026-03-31 16h06.22.382603 +0200,
,97,0,97,,,,,,,,,,,,,,,,,,,,,,None,,,None,,,,,,,,,,,97,0,97,0,1357.3290365000003,,,,,,,,,,,,,,,,,,,,,,,,,,,,,,,,,,,,,,,,,,,,,,,clips/clip_lied_02_nosub_2.mp4,audios/clip_lied_02_nosub_2.mp3,audiovisual,1357.3250372000002,1357.7130201,1357.9136435,1357.9136435,1357.9133280666667,1369.1373722000008,1369.1373722000008,1368.9307081000006,"[3.961515699999836, 9.345833200000015]",,1369.0234765000005,,,,1369.0235191000002,None,,,1369.0235789000008,1369.0236021,None,,,,,,,,320,001,2026-03-31_16h06.21.339,exp_sofc,,2025.2.3,59.41724751971676,2026-03-31 16h06.22.382603 +0200,
,98,0,98,,,,,,,,,,,,,,,,,,,,,,None,,,None,,,,,,,,,,,98,0,98,0,1369.1373722000008,,,,,,,,,,,,,,,,,,,,,,,,,,,,,,,,,,,,,,,,,,,,,,,clips/clip_hund_11_nosub_1.mp4,audios/clip_hund_11_nosub_1.mp3,audiovisual,1369.1339453,1369.5235544000006,1369.7248123,1369.7248123,1369.724167966667,1379.4556256000005,1379.6320956,1379.4558261000002,[6.139478099999906],,1379.5441855,,,,1379.5442315,None,,,1379.5442625000005,1379.5442811000003,None,,,,,,,,320,001,2026-03-31_16h06.21.339,exp_sofc,,2025.2.3,59.41724751971676,2026-03-31 16h06.22.382603 +0200,
,99,0,99,,,,,,,,,,,,,,,,,,,,,,None,,,None,,,,,,,,,,,99,0,99,0,1379.6320956,,,,,,,,,,,,,,,,,,,,,,,,,,,,,,,,,,,,,,,,,,,,,,,clips/clip_claude_08_sub_0.mp4,audios/silence.mp3,visual,1379.6283223,1380.0560564000007,1380.2570514,1380.2570514,1380.256663266667,1381.5085884,1390.0572218000007,1389.8883457000002,[],,1389.9719081000003,,,,1389.9719686000008,None,,,1389.9720128,1389.9720290000005,None,,,,,,,,320,001,2026-03-31_16h06.21.339,exp_sofc,,2025.2.3,59.41724751971676,2026-03-31 16h06.22.382603 +0200,
,100,0,100,,,,,,,,,,,,,,,,,,,,,,None,,,None,,,,,,,,,,,100,0,100,0,1390.0572218000007,,,,,,,,,,,,,,,,,,,,,,,,,,,,,,,,,,,,,,,,,,,,,,,clips/clip_lied_07_sub_1.mp4,audios/silence.mp3,visual,1390.0524997000002,1390.4731588000004,1390.6740482000005,1390.6740482000005,1390.6736203666671,1391.9247066000007,1399.8776637,1399.7035531000001,[4.399169399999664],,1399.7824922,,,,1399.7825422000005,None,,,1399.7825829000003,1399.7825991,None,,,,,,,,320,001,2026-03-31_16h06.21.339,exp_sofc,,2025.2.3,59.41724751971676,2026-03-31 16h06.22.382603 +0200,
,101,0,101,,,,,,,,,,,,,,,,,,,,,,None,,,None,,,,,,,,,,,101,0,101,0,1399.8776637,,,,,,,,,,,,,,,,,,,,,,,,,,,,,,,,,,,,,,,,,,,,,,,clips/clip_claude_16_nosub_1.mp4,audios/silence.mp3,visual,1399.8725365,1400.2875519,1400.4887875000004,1400.4887875000004,1400.4883457666667,1401.7403933000005,1411.8730352000002,1411.6898054000003,[9.094661600000109],,1411.7779642000005,,,,1411.7780075,None,,,1411.7780423000004,1411.7780615000001,None,,,,,,,,320,001,2026-03-31_16h06.21.339,exp_sofc,,2025.2.3,59.41724751971676,2026-03-31 16h06.22.382603 +0200,
,102,0,102,,,,,,,,,,,,,,,,,,,,,,None,,,None,,,,,,,,,,,102,0,102,0,1411.8730352000002,,,,,,,,,,,,,,,,,,,,,,,,,,,,,,,,,,,,,,,,,,,,,,,clips/clip_holo_16_sub_1.mp4,audios/silence.mp3,visual,1411.8703064000001,1412.2912259000004,1412.4922506000003,1412.4922506000003,1412.491735466667,1413.7436717,1424.7020828000004,1424.5121847999999,[10.266172200000256],,1424.6070723000003,,,,1424.6071279000007,None,,,1424.6071807000008,1424.6072099000003,None,,,,,,,,320,001,2026-03-31_16h06.21.339,exp_sofc,,2025.2.3,59.41724751971676,2026-03-31 16h06.22.382603 +0200,
,103,0,103,,,,,,,,,,,,,,,,,,,,,,None,,,None,,,,,,,,,,,103,0,103,0,1424.7020828000004,,,,,,,,,,,,,,,,,,,,,,,,,,,,,,,,,,,,,,,,,,,,,,,clips/clip_holo_06_nosub_2.mp4,audios/clip_holo_06_nosub_2.mp3,audiovisual,1424.6985861000003,1425.1196349000002,1425.3209974000001,1425.3209974000001,1425.320869866667,1435.0849144000003,1435.2963884,1435.0850982000002,"[5.531503799999882, 8.671392599999308]",,1435.1826114000005,,,,1435.1827801,None,,,1435.1828254000002,1435.1828415,None,,,,,,,,320,001,2026-03-31_16h06.21.339,exp_sofc,,2025.2.3,59.41724751971676,2026-03-31 16h06.22.382603 +0200,
,104,0,104,,,,,,,,,,,,,,,,,,,,,,None,,,None,,,,,,,,,,,104,0,104,0,1435.2963884,,,,,,,,,,,,,,,,,,,,,,,,,,,,,,,,,,,,,,,,,,,,,,,clips/clip_dampf_05_sub_2.mp4,audios/clip_dampf_05_sub_2.mp3,audiovisual,1435.2929574,1435.6983324000003,1435.8982801000002,1435.8982801000002,1435.8976800666671,,1444.7736546000006,1444.5948019000007,"[3.5438642999997683, 7.386899000000085, 8.725152299999536]",,1444.6665715,,,,1444.6666595000006,None,,,1444.6667102000001,1444.6667398,None,,,,,,,,320,001,2026-03-31_16h06.21.339,exp_sofc,,2025.2.3,59.41724751971676,2026-03-31 16h06.22.382603 +0200,
,105,0,105,,,,,,,,,,,,,,,,,,,,,,None,,,None,,,,,,,,,,,105,0,105,0,1444.7736546000006,,,,,,,,,,,,,,,,,,,,,,,,,,,,,,,,,,,,,,,,,,,,,,,clips/clip_claude_13_nosub_0.mp4,audios/silence.mp3,visual,1444.7694216,1445.1794094000006,1445.3792751,1445.3792751,1445.3790589666671,1446.6310929,1454.8337637000004,1454.6104172000005,[],,1454.7192871000007,,,,1454.7193249000002,None,,,1454.7193587000002,1454.7193838000003,None,,,,,,,,320,001,2026-03-31_16h06.21.339,exp_sofc,,2025.2.3,59.41724751971676,2026-03-31 16h06.22.382603 +0200,
,106,0,106,,,,,,,,,,,,,,,,,,,,,,1,2.8801524000000427,None,None,,,,,,,,,,,106,0,106,0,1454.8337637000004,,,,,,,,,,,,,,,,,,,,,,,,,,,,,,,,,,,,,,,,,,,,,,,clips/clip_wurst_20_sub_0.mp4,audios/clip_wurst_20_sub_0.mp3,audiovisual,1454.8301849,1455.2277377999999,1455.4282691000008,1455.4282691000008,1455.427959466667,1465.5406055000003,1465.5406055000003,1465.4447855000008,[],1,1465.5365639000001,1465.5406055000003,1465.5406055000003,1465.5406055000003,1468.423965,1,2.8801524000000427,None,1468.4240132000004,1468.4240328000005,None,,,,,,,,320,001,2026-03-31_16h06.21.339,exp_sofc,,2025.2.3,59.41724751971676,2026-03-31 16h06.22.382603 +0200,
,107,0,107,,,,,,,,,,,,,,,,,,,,,,None,,,None,,,,,,,,,,,107,0,107,0,1468.5178974,,,,,,,,,,,,,,,,,,,,,,,,,,,,,,,,,,,,,,,,,,,,,,,clips/clip_weißt_29_nosub_1.mp4,audios/silence.mp3,visual,1468.5131893000007,1468.9332335,1469.1332563000005,1469.1332563000005,1469.1330180666666,1470.3848571000008,1480.9233986,1480.7344579,[6.717708599999241],,1480.8189012000003,,,,1480.8189317000006,None,,,1480.8189589000003,1480.8189737000002,None,,,,,,,,320,001,2026-03-31_16h06.21.339,exp_sofc,,2025.2.3,59.41724751971676,2026-03-31 16h06.22.382603 +0200,
,108,0,108,,,,,,,,,,,,,,,,,,,,,,None,,,None,,,,,,,,,,,108,0,108,0,1480.9233986,,,,,,,,,,,,,,,,,,,,,,,,,,,,,,,,,,,,,,,,,,,,,,,clips/clip_hund_04_sub_0.mp4,audios/silence.mp3,visual,1480.9181088000005,1481.3235965000003,1481.5244841000003,1481.5244841000003,1481.523822766667,1482.7761792000001,1491.2778006000008,1491.0562642000004,[],,1491.1572073000007,,,,1491.1572883,None,,,1491.1573399,1491.1573569000002,None,,,,,,,,320,001,2026-03-31_16h06.21.339,exp_sofc,,2025.2.3,59.41724751971676,2026-03-31 16h06.22.382603 +0200,
,109,0,109,,,,,,,,,,,,,,,,,,,,,,None,,,None,,,,,,,,,,,109,0,109,0,1491.2778006000008,,,,,,,,,,,,,,,,,,,,,,,,,,,,,,,,,,,,,,,,,,,,,,,clips/clip_holo_22_sub_1.mp4,audios/clip_holo_22_sub_1.mp3,audiovisual,1491.2742205000004,1491.6564791,1491.8576022000007,1491.8576022000007,1491.8568095666672,1501.2515872000004,1501.2515872000004,1501.0615146,[9.35122439999941],,1501.146307,,,,1501.1463564000005,None,,,1501.1463888000008,1501.1464078,None,,,,,,,,320,001,2026-03-31_16h06.21.339,exp_sofc,,2025.2.3,59.41724751971676,2026-03-31 16h06.22.382603 +0200,
,110,0,110,,,,,,,,,,,,,,,,,,,,,,None,,,None,,,,,,,,,,,110,0,110,0,1501.2515872000004,,,,,,,,,,,,,,,,,,,,,,,,,,,,,,,,,,,,,,,,,,,,,,,clips/clip_wurst_04_sub_2.mp4,audios/silence.mp3,visual,1501.2464765000004,1501.6472163000008,1501.8475768000008,1501.8475768000008,1501.8471612666674,1503.0996871000007,1513.6546326000007,1513.4655951000004,[7.2593839999999545],,1513.5581287000005,,,,1513.5581774000002,None,,,1513.5582222000003,1513.5582467000004,None,,,,,,,,320,001,2026-03-31_16h06.21.339,exp_sofc,,2025.2.3,59.41724751971676,2026-03-31 16h06.22.382603 +0200,
,111,0,111,,,,,,,,,,,,,,,,,,,,,,None,,,None,,,,,,,,,,,111,0,111,0,1513.6546326000007,,,,,,,,,,,,,,,,,,,,,,,,,,,,,,,,,,,,,,,,,,,,,,,clips/clip_claude_10_nosub_0.mp4,audios/silence.mp3,visual,1513.6503706000003,1514.0732103,1514.2737197000006,1514.2737197000006,1514.2735419666672,1515.5248358,1525.6995190000007,1525.4909924000003,[],,1525.5793330000006,,,,1525.5793623,None,,,1525.5793892000002,1525.5794037000005,None,,,,,,,,320,001,2026-03-31_16h06.21.339,exp_sofc,,2025.2.3,59.41724751971676,2026-03-31 16h06.22.382603 +0200,
,112,0,112,,,,,,,,,,,,,,,,,,,,,,None,,,None,,,,,,,,,,,112,0,112,0,1525.6995190000007,,,,,,,,,,,,,,,,,,,,,,,,,,,,,,,,,,,,,,,,,,,,,,,clips/clip_hund_32_sub_1.mp4,audios/clip_hund_32_sub_1.mp3,audiovisual,1525.6955645000007,1526.0841972000007,1526.2843979,1526.2843979,1526.284098766667,1536.3166647000007,1536.5311490000004,1536.3168861000004,"[5.052397299999939, 7.996547800000371]",,1536.4061448000002,,,,1536.4062314000003,None,,,1536.4062792000004,1536.4062963000006,None,,,,,,,,320,001,2026-03-31_16h06.21.339,exp_sofc,,2025.2.3,59.41724751971676,2026-03-31 16h06.22.382603 +0200,
,113,0,113,,,,,,,,,,,,,,,,,,,,,,None,,,None,,,,,,,,,,,113,0,113,0,1536.5311490000004,,,,,,,,,,,,,,,,,,,,,,,,,,,,,,,,,,,,,,,,,,,,,,,clips/clip_weißt_14_nosub_2.mp4,audios/clip_weißt_14_nosub_2.mp3,audiovisual,1536.5271126000007,1536.9161221000004,1537.1175678,1537.1175678,1537.1163571666668,1546.0466884000007,1546.2563844000006,1546.0468643000004,"[2.7345274999997855, 8.001279399999476]",,1546.1402466,,,,1546.1402809,None,,,1546.1403243000004,1546.1403599000005,None,,,,,,,,320,001,2026-03-31_16h06.21.339,exp_sofc,,2025.2.3,59.41724751971676,2026-03-31 16h06.22.382603 +0200,
,114,0,114,,,,,,,,,,,,,,,,,,,,,,None,,,None,,,,,,,,,,,114,0,114,0,1546.2563844000006,,,,,,,,,,,,,,,,,,,,,,,,,,,,,,,,,,,,,,,,,,,,,,,clips/clip_herz_13_nosub_0.mp4,audios/clip_herz_13_nosub_0.mp3,audiovisual,1546.2524408,1546.6408655000005,1546.8412276,1546.8412276,1546.8411805666667,,1558.2588157,1558.0453780000007,[],,1558.1321434000001,,,,1558.1322261000005,None,,,1558.1322760000003,1558.1322952,None,,,,,,,,320,001,2026-03-31_16h06.21.339,exp_sofc,,2025.2.3,59.41724751971676,2026-03-31 16h06.22.382603 +0200,
,115,0,115,,,,,,,,,,,,,,,,,,,,,,None,,,None,,,,,,,,,,,115,0,115,0,1558.2588157,,,,,,,,,,,,,,,,,,,,,,,,,,,,,,,,,,,,,,,,,,,,,,,clips/clip_weißt_27_nosub_1.mp4,audios/clip_weißt_27_nosub_1.mp3,audiovisual,1558.2546795000007,1558.6426190000002,1558.8432322000008,1558.8432322000008,1558.8426628666668,1568.9251098000004,1569.0972289000001,1568.9252853000007,[8.245133599999463],,1569.0080989000007,,,,1569.0081371000006,None,,,1569.0081751000007,1569.0081907000003,None,,,,,,,,320,001,2026-03-31_16h06.21.339,exp_sofc,,2025.2.3,59.41724751971676,2026-03-31 16h06.22.382603 +0200,
,116,0,116,,,,,,,,,,,,,,,,,,,,,,None,,,None,,,,,,,,,,,116,0,116,0,1569.0972289000001,,,,,,,,,,,,,,,,,,,,,,,,,,,,,,,,,,,,,,,,,,,,,,,clips/clip_claude_04_nosub_2.mp4,audios/silence.mp3,visual,1569.0931657,1569.5095182000005,1569.7103267000002,1569.7103267000002,1569.7100604666668,1570.9617471000001,1578.9354073000004,1578.7409237000002,[8.41559899999993],,1578.8365729000006,,,,1578.8366442000006,None,,,1578.8366881000002,1578.8367039000004,None,,,,,,,,320,001,2026-03-31_16h06.21.339,exp_sofc,,2025.2.3,59.41724751971676,2026-03-31 16h06.22.382603 +0200,
,117,0,117,,,,,,,,,,,,,,,,,,,,,,None,,,None,,,,,,,,,,,117,0,117,0,1578.9354073000004,,,,,,,,,,,,,,,,,,,,,,,,,,,,,,,,,,,,,,,,,,,,,,,clips/clip_wurst_23_sub_2.mp4,audios/silence.mp3,visual,1578.9326108000005,1579.3498485,1579.5501363000003,1579.5501363000003,1579.5498463666665,1580.8018628,1590.2595479000001,1590.0666374000002,"[3.6818437000001722, 7.799506700000165]",,1590.1551012,,,,1590.1551695000007,None,,,1590.1552143,1590.1552307000002,None,,,,,,,,320,001,2026-03-31_16h06.21.339,exp_sofc,,2025.2.3,59.41724751971676,2026-03-31 16h06.22.382603 +0200,
,118,0,118,,,,,,,,,,,,,,,,,,,,,,None,,,None,,,,,,,,,,,118,0,118,0,1590.2595479000001,,,,,,,,,,,,,,,,,,,,,,,,,,,,,,,,,,,,,,,,,,,,,,,clips/clip_claude_03_sub_1.mp4,audios/silence.mp3,visual,1590.2558553,1590.6588330000004,1590.8598082000008,1590.8598082000008,1590.8593501666667,1592.112059,1602.5589311000003,1602.3788303000001,[5.179702200000065],,1602.4668411000002,,,,1602.4668754000004,None,,,1602.4669125,1602.4669284000001,None,,,,,,,,320,001,2026-03-31_16h06.21.339,exp_sofc,,2025.2.3,59.41724751971676,2026-03-31 16h06.22.382603 +0200,
,119,0,119,,,,,,,,,,,,,,,,,,,,,,None,,,space,1.847623399999975,None,,,,,,,,,119,0,119,0,1602.5589311000003,,,,,,,,,,,,,,,,,,,,,,,,,,,,,,,,,,,,,,,,,,,,,,,clips/clip_claude_27_nosub_0.mp4,audios/silence.mp3,visual,1602.5559000000003,1602.9780831000007,1603.1791498000002,1603.1791498000002,1603.178553566667,1604.4304558000003,1615.2989681,1615.1976854000004,[1.5887471999994887],,1615.2914525000006,,,,1615.2914855,None,,,1615.2915176000006,1617.1586492000006,space,1615.2989681,1615.2989681,1615.2989681,1.847623399999975,None,,,320,001,2026-03-31_16h06.21.339,exp_sofc,,2025.2.3,59.41724751971676,2026-03-31 16h06.22.382603 +0200,
,120,0,120,,,,,,,,,,,,,,,,,,,,,,None,,,None,,,,,,,,,,,120,0,120,0,1617.2537052000007,,,,,,,,,,,,,,,,,,,,,,,,,,,,,,,,,,,,,,,,,,,,,,,clips/clip_holo_28_nosub_0.mp4,audios/silence.mp3,visual,1617.2506066000005,1617.6675539000007,1617.8686664000006,1617.8686664000006,1617.8681639666668,1619.1199839,1626.5885169000003,1626.3984100000007,[],,1626.4850304000001,,,,1626.4851124000006,None,,,1626.4851716000003,1626.4851893000005,None,,,,,,,,320,001,2026-03-31_16h06.21.339,exp_sofc,,2025.2.3,59.41724751971676,2026-03-31 16h06.22.382603 +0200,
,121,0,121,,,,,,,,,,,,,,,,,,,,,,None,,,None,,,,,,,,,,,121,0,121,0,1626.5885169000003,,,,,,,,,,,,,,,,,,,,,,,,,,,,,,,,,,,,,,,,,,,,,,,clips/clip_weißt_11_sub_0.mp4,audios/silence.mp3,visual,1626.5838392000005,1626.9893991,1627.1902934,1627.1902934,1627.1902522666671,1628.4416045000007,1637.4323206,1637.2230326,[],,1637.3091758,,,,1637.3092386000008,None,,,1637.3092996000005,1637.3093418000008,None,,,,,,,,320,001,2026-03-31_16h06.21.339,exp_sofc,,2025.2.3,59.41724751971676,2026-03-31 16h06.22.382603 +0200,
,122,0,122,,,,,,,,,,,,,,,,,,,,,,None,,,None,,,,,,,,,,,122,0,122,0,1637.4323206,,,,,,,,,,,,,,,,,,,,,,,,,,,,,,,,,,,,,,,,,,,,,,,clips/clip_hund_14_sub_2.mp4,audios/clip_hund_14_sub_2.mp3,audiovisual,1637.4274353,1637.8157190000002,1638.0185837,1638.0185837,1638.0155634666673,,1648.0908717000002,1647.9201498000002,"[5.86664219999966, 8.6930997999998]",,1648.0010056,,,,1648.0010410000004,None,,,1648.0010751,1648.0011028,None,,,,,,,,320,001,2026-03-31_16h06.21.339,exp_sofc,,2025.2.3,59.41724751971676,2026-03-31 16h06.22.382603 +0200,
,123,0,123,,,,,,,,,,,,,,,,,,,,,,None,,,None,,,,,,,,,,,123,0,123,0,1648.0908717000002,,,,,,,,,,,,,,,,,,,,,,,,,,,,,,,,,,,,,,,,,,,,,,,clips/clip_lied_09_sub_1.mp4,audios/silence.mp3,visual,1648.0875001000004,1648.5154554,1648.7163552000002,1648.7163552000002,1648.7156746666672,1649.9678376000002,1659.3346979000007,1659.1494189000005,[],,1659.2467879000005,,,,1659.2468313,None,,,1659.2468743,1659.2468988,None,,,,,,,,320,001,2026-03-31_16h06.21.339,exp_sofc,,2025.2.3,59.41724751971676,2026-03-31 16h06.22.382603 +0200,
,124,0,124,,,,,,,,,,,,,,,,,,,,,,None,,,None,,,,,,,,,,,124,0,124,0,1659.3346979000007,,,,,,,,,,,,,,,,,,,,,,,,,,,,,,,,,,,,,,,,,,,,,,,clips/clip_hund_19_sub_0.mp4,audios/silence.mp3,visual,1659.3309882000003,1659.7542151000007,1659.9534958000004,1659.9534958000004,1659.9533701666671,1661.2049452,1671.4851247000006,1671.3040594000004,[],,1671.3926267000006,,,,1671.3926749000002,None,,,1671.3927085000005,1671.3927270000004,None,,,,,,,,320,001,2026-03-31_16h06.21.339,exp_sofc,,2025.2.3,59.41724751971676,2026-03-31 16h06.22.382603 +0200,
,125,0,125,,,,,,,,,,,,,,,,,,,,,,2,2.5482899999997244,None,None,,,,,,,,,,,125,0,125,0,1671.4851247000006,,,,,,,,,,,,,,,,,,,,,,,,,,,,,,,,,,,,,,,,,,,,,,,clips/clip_wurst_29_sub_1.mp4,audios/silence.mp3,visual,1671.4808493,1671.904864,1672.1054382000002,1672.1054382000002,1672.1050597666674,1673.3572407000001,1684.2120092000005,1684.1241444000007,[],2,1684.2081585000005,1684.2120092000005,1684.2120092000005,1684.2120092000005,1686.7667715000007,2,2.5482899999997244,None,1686.7668652000002,1686.7669116000006,None,,,,,,,,320,001,2026-03-31_16h06.21.339,exp_sofc,,2025.2.3,59.41724751971676,2026-03-31 16h06.22.382603 +0200,
,126,0,126,,,,,,,,,,,,,,,,,,,,,,None,,,None,,,,,,,,,,,126,0,126,0,1686.8797159000005,,,,,,,,,,,,,,,,,,,,,,,,,,,,,,,,,,,,,,,,,,,,,,,clips/clip_hund_34_nosub_1.mp4,audios/silence.mp3,visual,1686.8761419000002,1687.2814877,1687.4816012000001,1687.4816012000001,1687.4814985666674,1688.7333207000001,1698.0872839000003,1697.9143667000008,[],,1698.0025762000005,,,,1698.0026176000001,None,,,1698.0026583,1698.0026822,None,,,,,,,,320,001,2026-03-31_16h06.21.339,exp_sofc,,2025.2.3,59.41724751971676,2026-03-31 16h06.22.382603 +0200,
,127,0,127,,,,,,,,,,,,,,,,,,,,,,None,,,None,,,,,,,,,,,127,0,127,0,1698.0872839000003,,,,,,,,,,,,,,,,,,,,,,,,,,,,,,,,,,,,,,,,,,,,,,,clips/clip_hund_01_sub_0.mp4,audios/silence.mp3,visual,1698.0814696000007,1698.5151645000005,1698.7173113,1698.7173113,1698.7164172666673,1699.968581,1709.6941634000004,1709.5163503000003,[],,1709.6037686,,,,1709.6038581000003,None,,,1709.6039174000007,1709.6039361000003,None,,,,,,,,320,001,2026-03-31_16h06.21.339,exp_sofc,,2025.2.3,59.41724751971676,2026-03-31 16h06.22.382603 +0200,
,128,0,128,,,,,,,,,,,,,,,,,,,,,,1,1.986525100000108,None,None,,,,,,,,,,,128,0,128,0,1709.6941634000004,,,,,,,,,,,,,,,,,,,,,,,,,,,,,,,,,,,,,,,,,,,,,,,clips/clip_herz_14_sub_0.mp4,audios/silence.mp3,visual,1709.6911887000006,1710.1164005,1710.3174444000006,1710.3174444000006,1710.317354666667,1711.5688388000008,1720.9464108000002,1720.8497917000004,[],1,1720.9428735000001,1720.9464108000002,1720.9464108000002,1720.9464108000002,1722.9451123,1,1.986525100000108,None,1722.9451695000007,1722.9451943000004,None,,,,,,,,320,001,2026-03-31_16h06.21.339,exp_sofc,,2025.2.3,59.41724751971676,2026-03-31 16h06.22.382603 +0200,
,129,0,129,,,,,,,,,,,,,,,,,,,,,,2,3.859676000000036,None,None,,,,,,,,,,,129,0,129,0,1723.0428419,,,,,,,,,,,,,,,,,,,,,,,,,,,,,,,,,,,,,,,,,,,,,,,clips/clip_hund_35_sub_0.mp4,audios/silence.mp3,visual,1723.038216,1723.4541344,1723.6545207,1723.6545207,1723.6542249666666,1724.9061803000004,1734.1919821000001,1734.0874082,[],2,1734.188013,1734.1919821000001,1734.1919821000001,1734.1919821000001,1738.0524233000006,2,3.859676000000036,None,1738.0524709000001,1738.0524887000001,None,,,,,,,,320,001,2026-03-31_16h06.21.339,exp_sofc,,2025.2.3,59.41724751971676,2026-03-31 16h06.22.382603 +0200,
,130,0,130,,,,,,,,,,,,,,,,,,,,,,None,,,None,,,,,,,,,,,130,0,130,0,1738.1672306,,,,,,,,,,,,,,,,,,,,,,,,,,,,,,,,,,,,,,,,,,,,,,,clips/clip_claude_17_sub_1.mp4,audios/clip_claude_17_sub_1.mp3,audiovisual,1738.1629984,1738.5513008000007,1738.7520128000006,1738.7520128000006,1738.7519196666674,1750.2693953000007,1750.4780315000007,1750.2695687000005,[10.36268360000031],,1750.3640679,,,,1750.3640984000003,None,,,1750.3641251,1750.3641395000004,None,,,,,,,,320,001,2026-03-31_16h06.21.339,exp_sofc,,2025.2.3,59.41724751971676,2026-03-31 16h06.22.382603 +0200,
,131,0,131,,,,,,,,,,,,,,,,,,,,,,None,,,None,,,,,,,,,,,131,0,131,0,1750.4780315000007,,,,,,,,,,,,,,,,,,,,,,,,,,,,,,,,,,,,,,,,,,,,,,,clips/clip_herz_05_sub_0.mp4,audios/silence.mp3,visual,1750.4756242000003,1750.8633265000008,1751.0648379000004,1751.0648379000004,1751.0642474666668,1752.3153151000006,1761.5718730000008,1761.3638173,"[5.941653799999585, 7.3189344000002166]",,1761.4471823000003,,,,1761.447244,None,,,1761.4473882000002,1761.4474366000004,None,,,,,,,,320,001,2026-03-31_16h06.21.339,exp_sofc,,2025.2.3,59.41724751971676,2026-03-31 16h06.22.382603 +0200,
,132,0,132,,,,,,,,,,,,,,,,,,,,,,None,,,None,,,,,,,,,,,132,0,132,0,1761.5718730000008,,,,,,,,,,,,,,,,,,,,,,,,,,,,,,,,,,,,,,,,,,,,,,,clips/clip_herz_04_nosub_0.mp4,audios/clip_herz_04_nosub_0.mp3,audiovisual,1761.5681195000006,1761.9566523000003,1762.1567278000002,1762.1567278000002,1762.156429466667,1773.3294769000004,1773.3294769000004,1773.1736551000004,[7.855394799999885],,1773.2473341000004,,,,1773.2473845000004,None,,,1773.2474369000001,1773.2474749000003,None,,,,,,,,320,001,2026-03-31_16h06.21.339,exp_sofc,,2025.2.3,59.41724751971676,2026-03-31 16h06.22.382603 +0200,
,133,0,133,,,,,,,,,,,,,,,,,,,,,,3,2.2826614000005065,None,None,,,,,,,,,,,133,0,133,0,1773.3294769000004,,,,,,,,,,,,,,,,,,,,,,,,,,,,,,,,,,,,,,,,,,,,,,,clips/clip_lied_05_nosub_0.mp4,audios/silence.mp3,visual,1773.3269374000001,1773.7501010000005,1773.9503811000004,1773.9503811000004,1773.950215066667,1775.2015921000002,1783.4473442000008,1783.3491694000004,[],3,1783.4440505000002,1783.4473442000008,1783.4473442000008,1783.4473442000008,1785.7437070000005,3,2.2826614000005065,None,1785.7437642000004,1785.7437880000007,None,,,,,,,,320,001,2026-03-31_16h06.21.339,exp_sofc,,2025.2.3,59.41724751971676,2026-03-31 16h06.22.382603 +0200,
,134,0,134,,,,,,,,,,,,,,,,,,,,,,None,,,None,,,,,,,,,,,134,0,134,0,1785.8585550000007,,,,,,,,,,,,,,,,,,,,,,,,,,,,,,,,,,,,,,,,,,,,,,,clips/clip_claude_06_sub_1.mp4,audios/silence.mp3,visual,1785.8533534000007,1786.2428550000004,1786.4435089000008,1786.4435089000008,1786.4432744666667,1787.6948818,1799.2247485000007,1798.9960978,[4.367201000000023],,1799.1160225000003,,,,1799.1160543000005,None,,,1799.1160811,1799.1160990000008,None,,,,,,,,320,001,2026-03-31_16h06.21.339,exp_sofc,,2025.2.3,59.41724751971676,2026-03-31 16h06.22.382603 +0200,
,135,0,135,,,,,,,,,,,,,,,,,,,,,,None,,,None,,,,,,,,,,,135,0,135,0,1799.2247485000007,,,,,,,,,,,,,,,,,,,,,,,,,,,,,,,,,,,,,,,,,,,,,,,clips/clip_wurst_08_nosub_1.mp4,audios/clip_wurst_08_nosub_1.mp3,audiovisual,1799.2213914000004,1799.6300569000005,1799.8305587000004,1799.8305587000004,1799.830303566667,1808.3607995000002,1808.5478418000002,1808.3609571000006,[5.263665499999661],,1808.4459535000005,,,,1808.4460002000005,None,,,1808.4460436,1808.4460674000002,None,,,,,,,,320,001,2026-03-31_16h06.21.339,exp_sofc,,2025.2.3,59.41724751971676,2026-03-31 16h06.22.382603 +0200,
,136,0,136,,,,,,,,,,,,,,,,,,,,,,None,,,None,,,,,,,,,,,136,0,136,0,1808.5478418000002,,,,,,,,,,,,,,,,,,,,,,,,,,,,,,,,,,,,,,,,,,,,,,,clips/clip_holo_17_nosub_0.mp4,audios/clip_holo_17_nosub_0.mp3,audiovisual,1808.5441005000002,1808.9497581000005,1809.1497654000004,1809.1497654000004,1809.1496126666673,1818.9817354000006,1819.1943878000002,1818.9818979000001,[],,1819.0755500000005,,,,1819.0755856000005,None,,,1819.0756215000001,1819.0756372000005,None,,,,,,,,320,001,2026-03-31_16h06.21.339,exp_sofc,,2025.2.3,59.41724751971676,2026-03-31 16h06.22.382603 +0200,
,137,0,137,,,,,,,,,,,,,,,,,,,,,,None,,,None,,,,,,,,,,,137,0,137,0,1819.1943878000002,,,,,,,,,,,,,,,,,,,,,,,,,,,,,,,,,,,,,,,,,,,,,,,clips/clip_dampf_02_sub_1.mp4,audios/clip_dampf_02_sub_1.mp3,audiovisual,1819.1906574000004,1819.5788551000005,1819.7797959,1819.7797959,1819.7794142666673,1829.3008777000005,1829.3008777000005,1829.1100476000001,[4.916613599999437],,1829.1932707000005,,,,1829.1933357000007,None,,,1829.1933897,1829.1934169000006,None,,,,,,,,320,001,2026-03-31_16h06.21.339,exp_sofc,,2025.2.3,59.41724751971676,2026-03-31 16h06.22.382603 +0200,
,138,0,138,,,,,,,,,,,,,,,,,,,,,,None,,,None,,,,,,,,,,,138,0,138,0,1829.3008777000005,,,,,,,,,,,,,,,,,,,,,,,,,,,,,,,,,,,,,,,,,,,,,,,clips/clip_weißt_06_nosub_0.mp4,audios/silence.mp3,visual,1829.2950815000004,1829.7010606000003,1829.9009323,1829.9009323,1829.9007754666666,1831.1530513000007,1840.4554696000005,1840.2342484,[5.651195899999948],,1840.3390263000001,,,,1840.3390654000004,None,,,1840.3391266000008,1840.3391581000005,None,,,,,,,,320,001,2026-03-31_16h06.21.339,exp_sofc,,2025.2.3,59.41724751971676,2026-03-31 16h06.22.382603 +0200,
,139,0,139,,,,,,,,,,,,,,,,,,,,,,None,,,None,,,,,,,,,,,139,0,139,0,1840.4554696000005,,,,,,,,,,,,,,,,,,,,,,,,,,,,,,,,,,,,,,,,,,,,,,,clips/clip_lied_12_nosub_0.mp4,audios/clip_lied_12_nosub_0.mp3,audiovisual,1840.4522660000002,1840.8516245,1841.0519557000007,1841.0519557000007,1841.0515122666668,1850.0832599000005,1850.2782791,1850.0834527000006,[],,1850.1761642000001,,,,1850.1762036,None,,,1850.1762423,1850.1762619,None,,,,,,,,320,001,2026-03-31_16h06.21.339,exp_sofc,,2025.2.3,59.41724751971676,2026-03-31 16h06.22.382603 +0200,
,140,0,140,,,,,,,,,,,,,,,,,,,,,,1,3.3980735999994067,None,None,,,,,,,,,,,140,0,140,0,1850.2782791,,,,,,,,,,,,,,,,,,,,,,,,,,,,,,,,,,,,,,,,,,,,,,,clips/clip_hund_30_sub_0.mp4,audios/silence.mp3,visual,1850.274695,1850.6920096000003,1850.8920347000003,1850.8920347000003,1850.8917884666673,1852.1437006000006,1863.0116975,1862.9114677000007,[],1,1863.0085659000006,1863.0116975,1863.0116975,1863.0116975,1866.4248964000008,1,3.3980735999994067,None,1866.4249549000006,1866.4249790000003,None,,,,,,,,320,001,2026-03-31_16h06.21.339,exp_sofc,,2025.2.3,59.41724751971676,2026-03-31 16h06.22.382603 +0200,
,141,0,141,,,,,,,,,,,,,,,,,,,,,,4,2.7585246999997253,None,None,,,,,,,,,,,141,0,141,0,1866.5298864000006,,,,,,,,,,,,,,,,,,,,,,,,,,,,,,,,,,,,,,,,,,,,,,,clips/clip_wurst_17_sub_0.mp4,audios/silence.mp3,visual,1866.5270281000003,1866.9339566000008,1867.1347667,1867.1347667,1867.1346050666673,1868.3858088000006,1875.2504554000006,1875.1629745,[],4,1875.2467284000004,1875.2504554000006,1875.2504554000006,1875.2504554000006,1878.0225166,4,2.7585246999997253,None,1878.0225828000002,1878.0226124,None,,,,,,,,320,001,2026-03-31_16h06.21.339,exp_sofc,,2025.2.3,59.41724751971676,2026-03-31 16h06.22.382603 +0200,
,142,0,142,,,,,,,,,,,,,,,,,,,,,,None,,,None,,,,,,,,,,,142,0,142,0,1878.1530160000002,,,,,,,,,,,,,,,,,,,,,,,,,,,,,,,,,,,,,,,,,,,,,,,clips/clip_holo_12_sub_1.mp4,audios/clip_holo_12_sub_1.mp3,audiovisual,1878.1478103,1878.5229723000002,1878.7252647000005,1878.7252647000005,1878.723544466667,1888.7556526000008,1888.9824346000005,1888.7558294,[],,1888.8596468000005,,,,1888.8596792000008,None,,,1888.8597079,1888.8597236000005,None,,,,,,,,320,001,2026-03-31_16h06.21.339,exp_sofc,,2025.2.3,59.41724751971676,2026-03-31 16h06.22.382603 +0200,
,143,0,143,,,,,,,,,,,,,,,,,,,,,,None,,,None,,,,,,,,,,,143,0,143,0,1888.9824346000005,,,,,,,,,,,,,,,,,,,,,,,,,,,,,,,,,,,,,,,,,,,,,,,clips/clip_wurst_06_nosub_2.mp4,audios/clip_wurst_06_nosub_2.mp3,audiovisual,1888.9787310000002,1889.3739669000006,1889.5739658000002,1889.5739658000002,1889.5733274666666,1900.8394269,1900.8394269,1900.6740801000005,"[2.7357935999998517, 8.316278299999794]",,1900.7526997000004,,,,1900.7527382000007,None,,,1900.7527703000005,1900.7527917000007,None,,,,,,,,320,001,2026-03-31_16h06.21.339,exp_sofc,,2025.2.3,59.41724751971676,2026-03-31 16h06.22.382603 +0200,
,144,0,144,,,,,,,,,,,,,,,,,,,,,,None,,,None,,,,,,,,,,,144,0,144,0,1900.8394269,,,,,,,,,,,,,,,,,,,,,,,,,,,,,,,,,,,,,,,,,,,,,,,clips/clip_wurst_28_nosub_1.mp4,audios/silence.mp3,visual,1900.8367291000004,1901.2575605000002,1901.4582254000006,1901.4582254000006,1901.4579502666668,1902.7101204,1912.0131841000002,1911.7909834000002,[],,1911.8834018000007,,,,1911.8834377000003,None,,,1911.8834744000005,1911.8834903000006,None,,,,,,,,320,001,2026-03-31_16h06.21.339,exp_sofc,,2025.2.3,59.41724751971676,2026-03-31 16h06.22.382603 +0200,
,145,0,145,,,,,,,,,,,,,,,,,,,,,,None,,,None,,,,,,,,,,,145,0,145,0,1912.0131841000002,,,,,,,,,,,,,,,,,,,,,,,,,,,,,,,,,,,,,,,,,,,,,,,clips/clip_claude_01_sub_2.mp4,audios/clip_claude_01_sub_2.mp3,audiovisual,1912.0098192000005,1912.3925649000003,1912.5924404000007,1912.5924404000007,1912.5918753666667,,1923.7412803000007,1923.5475874000003,[7.088146800000686],,1923.6459319000005,,,,1923.6459712000005,None,,,1923.6460044000005,1923.6460229000004,None,,,,,,,,320,001,2026-03-31_16h06.21.339,exp_sofc,,2025.2.3,59.41724751971676,2026-03-31 16h06.22.382603 +0200,
,146,0,146,,,,,,,,,,,,,,,,,,,,,,1,3.009172499999295,None,None,,,,,,,,,,,146,0,146,0,1923.7412803000007,,,,,,,,,,,,,,,,,,,,,,,,,,,,,,,,,,,,,,,,,,,,,,,clips/clip_herz_02_nosub_0.mp4,audios/silence.mp3,visual,1923.7369433000003,1924.151422,1924.3522910000002,1924.3522910000002,1924.3517676666672,1925.6038370000006,1936.8511277000007,1936.7550260000007,[9.049347099999977],1,1936.8473843000002,1936.8511277000007,1936.8511277000007,1936.8511277000007,1939.8679428000005,1,3.009172499999295,None,1939.8680058,1939.8680344000004,None,,,,,,,,320,001,2026-03-31_16h06.21.339,exp_sofc,,2025.2.3,59.41724751971676,2026-03-31 16h06.22.382603 +0200,
,147,0,147,,,,,,,,,,,,,,,,,,,,,,None,,,None,,,,,,,,,,,147,0,147,0,1939.9727251000004,,,,,,,,,,,,,,,,,,,,,,,,,,,,,,,,,,,,,,,,,,,,,,,clips/clip_weißt_22_nosub_0.mp4,audios/silence.mp3,visual,1939.9690774,1940.3767188000002,1940.5771571000005,1940.5771571000005,1940.577042066667,1941.829224,1951.8759739000006,1951.6782596000003,[],,1951.7626754000003,,,,1951.7627068000002,None,,,1951.7627336000005,1951.7627513000007,None,,,,,,,,320,001,2026-03-31_16h06.21.339,exp_sofc,,2025.2.3,59.41724751971676,2026-03-31 16h06.22.382603 +0200,
