instruction_text,thisN,thisTrialN,thisRepN,key_resp_instruction.keys,key_resp_instruction.rt,key_resp_instruction.duration,clip_file,clip_path,sound_path,movie,subtitles,n_cut,clip_num,first_cut,second_cut,clip_duration,attention_check_question,attention_check_correct,attention_check_distractor_1,attention_check_distractor_2,attention_check_distractor_3,prac_attention_resp.keys,prac_attention_resp.rt,prac_attention_resp.duration,exp_atttention_resp.keys,exp_atttention_resp.rt,exp_atttention_resp.duration,exp_pause_resp.keys,exp_pause_resp.rt,exp_pause_resp.duration,instruction_trials.thisRepN,instruction_trials.thisTrialN,instruction_trials.thisN,instruction_trials.thisIndex,practice_trials.thisRepN,practice_trials.thisTrialN,practice_trials.thisN,practice_trials.thisIndex,experiment_trials.thisRepN,experiment_trials.thisTrialN,experiment_trials.thisN,experiment_trials.thisIndex,thisRow.t,notes,instructions.started,text_instruction.started,key_resp_instruction.started,instructions.stopped,instruction_trials.key_resp_instruction.keys,instruction_trials.key_resp_instruction.rt,instruction_trials.key_resp_instruction.duration,informed_consent.started,slider_informed_consent.started,text_informed_consent.started,informed_consent.stopped,slider_informed_consent.response,slider_informed_consent.rt,begin_practice.started,begin_practice_text.started,begin_practice.stopped,Practice_clip_name,Practice_video_used,Practice_audio_used,Practice_modality,Practice_subtitles,Practice_attention_check,practice_clip.started,prac_feedback.started,prac_fixation_cross.started,prac_fixation_cross.stopped,prac_clip.started,prac_sound.started,prac_sound.stopped,prac_clip.stopped,practice_clip.stopped,prac_all_cut_rts,Practice_correct_key_required,practice_attention_check.started,prac_attention_resp.started,prac_question.started,prac_options.started,practice_attention_check.stopped,practice_trials.prac_attention_resp.keys,practice_trials.prac_attention_resp.rt,practice_trials.prac_attention_resp.duration,begin_experiment.started,begin_experiment_text.started,begin_experiment_text.stopped,begin_experiment.stopped,video_used,audio_used,condition_modality,experiment_clip.started,exp_fixation_cross.started,exp_fixation_cross.stopped,exp_clip.started,exp_sound.started,exp_sound.stopped,exp_clip.stopped,experiment_clip.stopped,all_cut_rts,correct_key_required,experiment_attention_check.started,exp_atttention_resp.started,exp_question.started,exp_options.started,experiment_attention_check.stopped,experiment_trials.exp_atttention_resp.keys,experiment_trials.exp_atttention_resp.rt,experiment_trials.exp_atttention_resp.duration,experiment_pause.started,experiment_pause.stopped,experiment_trials.exp_pause_resp.keys,exp_pause_text.started,exp_pause_resp.started,exp_countdown.started,experiment_trials.exp_pause_resp.rt,experiment_trials.exp_pause_resp.duration,exp_pause_resp.stopped,exp_countdown.stopped,end.started,text_end.started,participant,session,date,expName,expVersion,psychopyVersion,frameRate,expStart,
"Herzlich willkommen!

Vielen Dank, dass Sie an unserer Studie teilnehmen. Die Untersuchung wird insgesamt etwa 35 Minuten in Anspruch nehmen.

Bevor wir beginnen, beachten Sie bitte folgende Voraussetzungen für die Teilnahme:
• Sie sind mindestens 18 Jahre alt.
• Ihre Muttersprache ist Deutsch.

(Drücken Sie die Leertaste, um fortzufahren)",0,0,0,space,9.579074699999978,None,,,,,,,,,,,,,,,,,,,,,,,,,0,0,0,0,,,,,,,,,0.04353049999997438,,0.014787500000011278,0.04353049999997438,0.04353049999997438,9.634017999999969,space,9.579074699999978,None,,,,,,,,,,,,,,,,,,,,,,,,,,,,,,,,,,,,,,,,,,,,,,,,,,,,,,,,,,,,,,,,,,,,,,,,325,001,2026-04-01_12h15.42.283,exp_sofc,,2025.2.3,59.921861892099244,2026-04-01 12h15.43.197031 +0200,
"Ablauf der Studie

Ihnen werden in schneller Abfolge viele kurze Filmclips gezeigt.
Ihre Aufgabe ist einfach:

Drücken Sie jedes Mal die Leertaste, wenn Sie einen Filmschnitt (Cut) erkennen.

Zusätzlich werden Ihnen gelegentlich kurze Verständnisfragen zu den gezeigten Clips gestellt.

(Drücken Sie die Leertaste, um fortzufahren),",1,1,0,space,7.1350892000000385,None,,,,,,,,,,,,,,,,,,,,,,,,,0,1,1,1,,,,,,,,,9.65422650000005,,9.634150599999998,9.65422650000005,9.65422650000005,16.80483030000005,space,7.1350892000000385,None,,,,,,,,,,,,,,,,,,,,,,,,,,,,,,,,,,,,,,,,,,,,,,,,,,,,,,,,,,,,,,,,,,,,,,,,325,001,2026-04-01_12h15.42.283,exp_sofc,,2025.2.3,59.921861892099244,2026-04-01 12h15.43.197031 +0200,
"Freiwilligkeit Ihrer Teilnahme

Ihre Teilnahme an dieser Studie ist absolut freiwillig. Sie können das Experiment jederzeit und ohne Angabe von Gründen abbrechen, ohne dass Ihnen daraus irgendwelche Nachteile entstehen.

Sollten Sie die Studie vorzeitig beenden, werden Ihre bis dahin erhobenen Daten umgehend gelöscht und nicht gespeichert.

(Drücken Sie die Leertaste, um fortzufahren)",2,2,0,space,1.581772600000022,None,,,,,,,,,,,,,,,,,,,,,,,,,0,2,2,2,,,,,,,,,16.894082899999944,,16.80498239999997,16.894082899999944,16.894082899999944,18.480594099999962,space,1.581772600000022,None,,,,,,,,,,,,,,,,,,,,,,,,,,,,,,,,,,,,,,,,,,,,,,,,,,,,,,,,,,,,,,,,,,,,,,,,325,001,2026-04-01_12h15.42.283,exp_sofc,,2025.2.3,59.921861892099244,2026-04-01 12h15.43.197031 +0200,
"Datenschutz und Anonymität

Die Erhebung und Auswertung Ihrer Daten erfolgt am Fachbereich Psychologie der Universität Tübingen und ist vollständig anonym. Ihr Name wird zu keinem Zeitpunkt erfragt oder gespeichert. Niemand wird Ihre Daten mit Ihrer Person in Verbindung bringen können.

Die anonymisierten Experimentaldaten werden nach Abschluss der Erhebung für mindestens 10 Jahre gespeichert und zu Forschungszwecken in einer öffentlichen Datenbank zugänglich gemacht.

(Drücken Sie die Leertaste, um fortzufahren),",3,3,0,space,5.515309199999933,None,,,,,,,,,,,,,,,,,,,,,,,,,0,3,3,3,,,,,,,,,18.50932260000002,,18.480702800000017,18.50932260000002,18.50932260000002,24.039525600000047,space,5.515309199999933,None,,,,,,,,,,,,,,,,,,,,,,,,,,,,,,,,,,,,,,,,,,,,,,,,,,,,,,,,,,,,,,,,,,,,,,,,325,001,2026-04-01_12h15.42.283,exp_sofc,,2025.2.3,59.921861892099244,2026-04-01 12h15.43.197031 +0200,
"Einverständniserklärung

Bitte lesen Sie die folgende Erklärung aufmerksam durch:

Ich bestätige, dass ich über 18 Jahre alt bin und ausreichend Zeit hatte, mich für die Teilnahme zu entscheiden. Ich wurde über die Erhebung, Verarbeitung und öffentliche Zugänglichmachung meiner anonymisierten Daten angemessen informiert.
Ich bin mir bewusst, dass ich das Experiment jederzeit abbrechen kann.

(Drücken Sie die Leertaste, um fortzufahren)",4,4,0,space,9.481764300000009,None,,,,,,,,,,,,,,,,,,,,,,,,,0,4,4,4,,,,,,,,,24.061819600000035,,24.039666600000032,24.061819600000035,24.061819600000035,33.5541753,space,9.481764300000009,None,,,,,,,,,,,,,,,,,,,,,,,,,,,,,,,,,,,,,,,,,,,,,,,,,,,,,,,,,,,,,,,,,,,,,,,,325,001,2026-04-01_12h15.42.283,exp_sofc,,2025.2.3,59.921861892099244,2026-04-01 12h15.43.197031 +0200,
,,,,,,,,,,,,,,,,,,,,,,,,,,,,,,,,,,,,,,,,,,,,,,,,,,,,33.55515249999996,33.570510600000034,33.570510600000034,42.96914389999995,ich stimme zu,9.397919800000068,,,,,,,,,,,,,,,,,,,,,,,,,,,,,,,,,,,,,,,,,,,,,,,,,,,,,,,,,,,,,,,,,,325,001,2026-04-01_12h15.42.283,exp_sofc,,2025.2.3,59.921861892099244,2026-04-01 12h15.43.197031 +0200,
,,,,,,,,,,,,,,,,,,,,,,,,,,,,,,,,,,,,,,,,,,,,,,,,,,,,,,,,,,42.969181400000025,42.98545119999994,47.97649650000005,,,,,,,,,,,,,,,,,,,,,,,,,,,,,,,,,,,,,,,,,,,,,,,,,,,,,,,,,,,,,,,325,001,2026-04-01_12h15.42.283,exp_sofc,,2025.2.3,59.921861892099244,2026-04-01 12h15.43.197031 +0200,
,0,0,0,,,,clip_weißt_05_sub_0,clips/clip_weißt_05_sub_0.mp4,audios/clip_weißt_05_sub_0.mp3,weißt,sub,0,5,NA,NA,9767,Wer trägt die Leiter?,die Frau,der Mann,beide,keiner,2,18.363785699999994,None,,,,,,,,,,,0,0,0,0,,,,,48.42769940000005,,,,,,,,,,,,,,,,,,clip_hund_25_sub_1,clips/clip_hund_25_sub_1.mp4,audios/silence.mp3,visual,sub,True,48.42396180000003,48.42769940000005,48.46927019999998,48.67086789999996,48.67086789999996,48.669010466666705,49.920947100000035,57.13340029999995,57.00025519999997,[6.650245499999983],2,57.125594500000034,57.13340029999995,57.13340029999995,57.13340029999995,75.5110234,2,18.363785699999994,None,,,,,,,,,,,,,,,,,,,,,,,,,,,,,,,,,,,,,,325,001,2026-04-01_12h15.42.283,exp_sofc,,2025.2.3,59.921861892099244,2026-04-01 12h15.43.197031 +0200,
,1,1,0,,,,clip_hund_26_sub_1,clips/clip_hund_26_sub_1.mp4,audios/silence.mp3,hund,sub,0,26,NA,NA,9333,Wie wirkt die Frau?,amüsiert,hasserfüllt,traurig,ängstlich,None,,,,,,,,,,,,,0,1,1,3,,,,,75.6372824,,,,,,,,,,,,,,,,,,clip_hund_31_sub_0,clips/clip_hund_31_sub_0.mp4,audios/silence.mp3,visual,sub,False,75.62938810000003,75.6372824,76.01171069999998,76.21207879999997,76.21207879999997,76.21192556666666,77.4638205,84.92248949999998,84.6757907,[],,84.7889897,,,,84.7890271,None,,,,,,,,,,,,,,,,,,,,,,,,,,,,,,,,,,,,,,,,325,001,2026-04-01_12h15.42.283,exp_sofc,,2025.2.3,59.921861892099244,2026-04-01 12h15.43.197031 +0200,
,2,2,0,,,,clip_wurst_09_sub_1,clips/clip_wurst_09_sub_1.mp4,audios/clip_wurst_09_sub_1.mp3,wurst,sub,1,9,3666.0,NA,11267,Wer sind die alten Menschen wahrscheinlich?,Großeltern,Eltern,Geschwister,Nachbarn,None,,,,,,,,,,,,,0,2,2,10,,,,,84.92248949999998,,,,,,,,,,,,,,,,,,clip_hund_28_nosub_0,clips/clip_hund_28_nosub_0.mp4,audios/clip_hund_28_nosub_0.mp3,audiovisual,nosub,False,84.91805350000004,84.92248949999998,85.30171710000002,85.50172829999997,85.50172829999997,85.50130756666671,95.61787200000003,95.61787200000003,95.36721709999995,[],,95.47804599999995,,,,95.47808480000003,None,,,,,,,,,,,,,,,,,,,,,,,,,,,,,,,,,,,,,,,,325,001,2026-04-01_12h15.42.283,exp_sofc,,2025.2.3,59.921861892099244,2026-04-01 12h15.43.197031 +0200,
,3,3,0,,,,clip_hund_02_sub_1,clips/clip_hund_02_sub_1.mp4,audios/clip_hund_02_sub_1.mp3,hund,sub,1,2,8300.0,NA,9900,Welche Farbe hat der Pullover der Frau?,grün,schwarz,blau,rot,2,9.236845499999959,None,,,,,,,,,,,0,3,3,8,,,,,95.61787200000003,,,,,,,,,,,,,,,,,,clip_weißt_10_nosub_1,clips/clip_weißt_10_nosub_1.mp4,audios/clip_weißt_10_nosub_1.mp3,audiovisual,nosub,True,95.61204299999997,95.61787200000003,95.99358259999997,96.19307800000001,96.19307800000001,96.19395816666669,107.34350040000004,107.34350040000004,107.21151080000004,"[0.47628689999999096, 5.743224900000087]",2,107.3372468,107.34350040000004,107.34350040000004,107.34350040000004,116.59160729999996,2,9.236845499999959,None,,,,,,,,,,,,,,,,,,,,,,,,,,,,,,,,,,,,,,325,001,2026-04-01_12h15.42.283,exp_sofc,,2025.2.3,59.921861892099244,2026-04-01 12h15.43.197031 +0200,
,4,4,0,,,,clip_hund_28_nosub_0,clips/clip_hund_28_nosub_0.mp4,audios/clip_hund_28_nosub_0.mp3,hund,nosub,0,28,NA,NA,9840,Was steht auf dem Tisch vor den Personen?,Weinflasche mit Gläsern,Wasser,Bier,Kaffee,1,6.740015999999969,None,,,,,,,,,,,0,4,4,4,,,,,116.7083854,,,,,,,,,,,,,,,,,,clip_weißt_09_sub_1,clips/clip_weißt_09_sub_1.mp4,audios/silence.mp3,visual,sub,True,116.70059100000003,116.7083854,117.09294969999996,117.29348970000001,117.29348970000001,117.29206696666667,118.54523659999995,126.45401049999998,126.30901849999998,[6.724095899999952],3,126.44761329999994,126.45401049999998,126.45401049999998,126.45401049999998,133.208394,1,6.740015999999969,None,,,,,,,,,,,,,,,,,,,,,,,,,,,,,,,,,,,,,,325,001,2026-04-01_12h15.42.283,exp_sofc,,2025.2.3,59.921861892099244,2026-04-01 12h15.43.197031 +0200,
,5,5,0,,,,clip_weißt_10_nosub_1,clips/clip_weißt_10_nosub_1.mp4,audios/clip_weißt_10_nosub_1.mp3,weißt,nosub,1,10,4280.0,NA,11000,Was macht der Mann?,er greift an den Fernseher,er schaltet das Radio ein,er wirft eine Flasche,er öffnet das Fenster,None,,,,,,,,,,,,,0,5,5,6,,,,,133.35098989999995,,,,,,,,,,,,,,,,,,clip_wurst_09_sub_1,clips/clip_wurst_09_sub_1.mp4,audios/clip_wurst_09_sub_1.mp3,audiovisual,sub,False,133.3445534,133.35098989999995,133.71713620000003,133.91750079999997,133.91750079999997,133.9184069666667,,145.4549495,145.20318029999999,[5.025914300000068],,145.3140919,,,,145.31412780000005,None,,,,,,,,,,,,,,,,,,,,,,,,,,,,,,,,,,,,,,,,325,001,2026-04-01_12h15.42.283,exp_sofc,,2025.2.3,59.921861892099244,2026-04-01 12h15.43.197031 +0200,
,6,6,0,,,,clip_hund_31_sub_0,clips/clip_hund_31_sub_0.mp4,audios/silence.mp3,hund,sub,1,31,1966.0,NA,8433,Welche Tageszeit ist es?,abends,morgens,mittags,nachts,2,4.963799399999971,None,,,,,,,,,,,0,6,6,9,,,,,145.4549495,,,,,,,,,,,,,,,,,,clip_weißt_21_nosub_0,clips/clip_weißt_21_nosub_0.mp4,audios/silence.mp3,visual,nosub,True,145.4408777,145.4549495,145.82851229999994,146.0280805,146.0280805,146.02876226666663,147.27975530000003,156.2725395,156.1308586,[1.3263524999999845],2,156.26586329999998,156.2725395,156.2725395,156.2725395,161.2453084,2,4.963799399999971,None,,,,,,,,,,,,,,,,,,,,,,,,,,,,,,,,,,,,,,325,001,2026-04-01_12h15.42.283,exp_sofc,,2025.2.3,59.921861892099244,2026-04-01 12h15.43.197031 +0200,
,7,7,0,,,,clip_weißt_21_nosub_0,clips/clip_weißt_21_nosub_0.mp4,audios/silence.mp3,weißt,nosub,0,21,NA,NA,10080,Wo stehen die Personen?,am Balkongeländer,am Strand,an einer Bushaltestelle,im Wald,None,,,,,,,,,,,,,0,7,7,1,,,,,161.38028450000002,,,,,,,,,,,,,,,,,,clip_hund_26_sub_1,clips/clip_hund_26_sub_1.mp4,audios/silence.mp3,visual,sub,False,161.37184360000003,161.38028450000002,161.74850070000002,161.9488278,161.9488278,161.94857356666662,163.20048970000005,171.57129959999997,171.31216159999997,[],,171.42720629999997,,,,171.4272459,None,,,,,,,,,,,,,,,,,,,,,,,,,,,,,,,,,,,,,,,,325,001,2026-04-01_12h15.42.283,exp_sofc,,2025.2.3,59.921861892099244,2026-04-01 12h15.43.197031 +0200,
,8,8,0,,,,clip_hund_06_nosub_0,clips/clip_hund_06_nosub_0.mp4,audios/clip_hund_06_nosub_0.mp3,hund,nosub,0,6,NA,NA,10860,Wie sieht das Studio aus?,unaufgeräumt,sehr ordentlich,komplett leer,stark überfüllt,None,,,,,,,,,,,,,0,8,8,2,,,,,171.57129959999997,,,,,,,,,,,,,,,,,,clip_hund_06_nosub_0,clips/clip_hund_06_nosub_0.mp4,audios/clip_hund_06_nosub_0.mp3,audiovisual,nosub,False,171.56690730000003,171.57129959999997,171.93963789999998,172.13930029999995,172.13930029999995,172.13986876666664,183.2870001,183.2870001,183.02801920000002,[],,183.14094839999996,,,,183.14112060000002,None,,,,,,,,,,,,,,,,,,,,,,,,,,,,,,,,,,,,,,,,325,001,2026-04-01_12h15.42.283,exp_sofc,,2025.2.3,59.921861892099244,2026-04-01 12h15.43.197031 +0200,
,9,9,0,,,,clip_weißt_09_sub_1,clips/clip_weißt_09_sub_1.mp4,audios/silence.mp3,weißt,sub,1,9,4866.0,NA,9000,Was macht die Frau?,sie wickelt ein Band auf,sie näht,sie strickt,sie faltet Wäsche,None,,,,,,,,,,,,,0,9,9,5,,,,,183.2870001,,,,,,,,,,,,,,,,,,clip_weißt_05_sub_0,clips/clip_weißt_05_sub_0.mp4,audios/clip_weißt_05_sub_0.mp3,audiovisual,sub,False,183.28116490000002,183.2870001,183.65398649999997,183.85441819999994,183.85441819999994,183.8534448666667,193.90904350000005,193.90904350000005,193.65940469999998,[],,193.77280540000004,,,,193.77285459999996,None,,,,,,,,,,,,,,,,,,,,,,,,,,,,,,,,,,,,,,,,325,001,2026-04-01_12h15.42.283,exp_sofc,,2025.2.3,59.921861892099244,2026-04-01 12h15.43.197031 +0200,
,10,10,0,,,,clip_hund_25_sub_1,clips/clip_hund_25_sub_1.mp4,audios/silence.mp3,hund,sub,1,25,5466.0,NA,8300,Mit was essen die Personen?,mit ihren Händen,mit Messer und Gabel,mit Stäbchen,mit einem Löffel,None,,,,,,,,,,,,,0,10,10,11,,,,,193.90904350000005,,,,,,,,,,,,,,,,,,clip_hund_02_sub_1,clips/clip_hund_02_sub_1.mp4,audios/clip_hund_02_sub_1.mp3,audiovisual,sub,False,193.9045688,193.90904350000005,194.27860969999995,194.4787099,194.4787099,194.47897536666667,204.41042670000002,204.6441946,204.41222330000005,[9.602999100000034],,204.52174879999995,,,,204.52179520000004,None,,,,,,,,,,,,,,,,,,,,,,,,,,,,,,,,,,,,,,,,325,001,2026-04-01_12h15.42.283,exp_sofc,,2025.2.3,59.921861892099244,2026-04-01 12h15.43.197031 +0200,
,11,11,0,,,,clip_weißt_18_nosub_1,clips/clip_weißt_18_nosub_1.mp4,audios/silence.mp3,weißt,nosub,1,18,5680.0,NA,12000,Wie wirken die Personen?,überrascht,wütend,verzweifelt,gelangweilt,None,,,,,,,,,,,,,0,11,11,7,,,,,204.6441946,,,,,,,,,,,,,,,,,,clip_weißt_18_nosub_1,clips/clip_weißt_18_nosub_1.mp4,audios/silence.mp3,visual,nosub,False,204.63679939999997,204.6441946,205.02829399999996,205.2285256,205.2285256,205.22832456666666,206.48039889999995,217.3563504,217.2488773,[6.941298299999971],,217.3497519,,,,217.34981029999994,None,,,,,,,,,,,,,,,,,,,,,,,,,,,,,,,,,,,,,,,,325,001,2026-04-01_12h15.42.283,exp_sofc,,2025.2.3,59.921861892099244,2026-04-01 12h15.43.197031 +0200,
,,,,,,,,,,,,,,,,,,,,,,,,,,,,,,,,,,,,,,,,,,,,,,,,,,,,,,,,,,,,,,,,,,,,,,,,,,,,,,,,,,,,,,217.3499193,217.3563504,222.4719599,222.34693489999995,,,,,,,,,,,,,,,,,,,,,,,,,,,,,,,,,,325,001,2026-04-01_12h15.42.283,exp_sofc,,2025.2.3,59.921861892099244,2026-04-01 12h15.43.197031 +0200,
,0,0,0,,,,,,,,,,,,,,,,,,,,,,4,21.15319690000001,None,None,,,,,,,,,,,0,0,0,0,222.4719599,,,,,,,,,,,,,,,,,,,,,,,,,,,,,,,,,,,,,,,,,,,,,,,clips/clip_weißt_12_sub_1.mp4,audios/clip_weißt_12_sub_1.mp3,audiovisual,222.46819189999997,222.86401899999998,223.06586330000005,223.06586330000005,223.06435976666663,234.98301030000005,235.09913889999996,234.98318749999999,[8.994638699999996],4,235.094692,235.09913889999996,235.09913889999996,235.09913889999996,256.26678159999994,4,21.15319690000001,None,256.26683319999995,256.26685410000005,None,,,,,,,,,,325,001,2026-04-01_12h15.42.283,exp_sofc,,2025.2.3,59.921861892099244,2026-04-01 12h15.43.197031 +0200,
,1,0,1,,,,,,,,,,,,,,,,,,,,,,None,,,None,,,,,,,,,,,1,0,1,0,256.3779872,,,,,,,,,,,,,,,,,,,,,,,,,,,,,,,,,,,,,,,,,,,,,,,clips/clip_lied_16_sub_2.mp4,audios/silence.mp3,visual,256.3721726,256.7775455,256.97824060000005,256.97824060000005,256.9778722666666,258.2302817,267.76385660000005,267.561503,"[4.088015099999893, 6.813345399999889]",,267.66617899999994,,,,267.6662132,None,,,267.666245,267.6662656,None,,,,,,,,,,325,001,2026-04-01_12h15.42.283,exp_sofc,,2025.2.3,59.921861892099244,2026-04-01 12h15.43.197031 +0200,
,2,0,2,,,,,,,,,,,,,,,,,,,,,,None,,,None,,,,,,,,,,,2,0,2,0,267.76385660000005,,,,,,,,,,,,,,,,,,,,,,,,,,,,,,,,,,,,,,,,,,,,,,,clips/clip_dampf_01_nosub_0.mp4,audios/silence.mp3,visual,267.75858889999995,268.17030220000004,268.370998,268.370998,268.37059626666667,269.62255259999995,278.0351008,277.81967369999995,[],,277.922471,,,,277.9225076,None,,,277.9225421,277.92255969999997,None,,,,,,,,,,325,001,2026-04-01_12h15.42.283,exp_sofc,,2025.2.3,59.921861892099244,2026-04-01 12h15.43.197031 +0200,
,3,0,3,,,,,,,,,,,,,,,,,,,,,,None,,,None,,,,,,,,,,,3,0,3,0,278.0351008,,,,,,,,,,,,,,,,,,,,,,,,,,,,,,,,,,,,,,,,,,,,,,,clips/clip_hund_14_nosub_2.mp4,audios/silence.mp3,visual,278.02976620000004,278.43528860000004,278.63564859999997,278.63564859999997,278.6354614666667,279.88701189999995,288.76458690000004,288.534095,"[5.811152200000038, 8.598287099999993]",,288.62998489999995,,,,288.63003449999997,None,,,288.6301581,288.6301866,None,,,,,,,,,,325,001,2026-04-01_12h15.42.283,exp_sofc,,2025.2.3,59.921861892099244,2026-04-01 12h15.43.197031 +0200,
,4,0,4,,,,,,,,,,,,,,,,,,,,,,None,,,None,,,,,,,,,,,4,0,4,0,288.76458690000004,,,,,,,,,,,,,,,,,,,,,,,,,,,,,,,,,,,,,,,,,,,,,,,clips/clip_wurst_21_nosub_0.mp4,audios/clip_wurst_21_nosub_0.mp3,audiovisual,288.76131769999995,289.13463019999995,289.33550990000003,289.33550990000003,289.3349728666667,300.067009,300.067009,299.8515406,[7.17988170000001],,299.9421409,,,,299.942192,None,,,299.94224069999996,299.94226960000003,None,,,,,,,,,,325,001,2026-04-01_12h15.42.283,exp_sofc,,2025.2.3,59.921861892099244,2026-04-01 12h15.43.197031 +0200,
,5,0,5,,,,,,,,,,,,,,,,,,,,,,None,,,None,,,,,,,,,,,5,0,5,0,300.067009,,,,,,,,,,,,,,,,,,,,,,,,,,,,,,,,,,,,,,,,,,,,,,,clips/clip_holo_26_sub_2.mp4,audios/clip_holo_26_sub_2.mp3,audiovisual,300.0630589,300.45159909999995,300.65164130000005,300.65164130000005,300.65126136666663,,310.05506230000003,309.85169870000004,"[6.11470410000004, 7.916607399999975]",,309.94273469999996,,,,309.94277769999997,None,,,309.94284830000004,309.94290090000004,None,,,,,,,,,,325,001,2026-04-01_12h15.42.283,exp_sofc,,2025.2.3,59.921861892099244,2026-04-01 12h15.43.197031 +0200,
,6,0,6,,,,,,,,,,,,,,,,,,,,,,None,,,None,,,,,,,,,,,6,0,6,0,310.05506230000003,,,,,,,,,,,,,,,,,,,,,,,,,,,,,,,,,,,,,,,,,,,,,,,clips/clip_wurst_01_sub_0.mp4,audios/silence.mp3,visual,310.0496634,310.45895800000005,310.659179,310.659179,310.65868336666665,311.91068740000003,320.7985274,320.5916145,[],,320.69477159999997,,,,320.69489139999996,None,,,320.6949797,320.69500659999994,None,,,,,,,,,,325,001,2026-04-01_12h15.42.283,exp_sofc,,2025.2.3,59.921861892099244,2026-04-01 12h15.43.197031 +0200,
,7,0,7,,,,,,,,,,,,,,,,,,,,,,None,,,None,,,,,,,,,,,7,0,7,0,320.7985274,,,,,,,,,,,,,,,,,,,,,,,,,,,,,,,,,,,,,,,,,,,,,,,clips/clip_wurst_26_sub_1.mp4,audios/silence.mp3,visual,320.79302110000003,321.19985469999995,321.4004486,321.4004486,321.4001484666667,322.65225169999997,333.6314965,333.41944739999997,"[0.40873209999995197, 10.186739099999954]",,333.5235632,,,,333.52360999999996,None,,,333.5236568,333.5236771,None,,,,,,,,,,325,001,2026-04-01_12h15.42.283,exp_sofc,,2025.2.3,59.921861892099244,2026-04-01 12h15.43.197031 +0200,
,8,0,8,,,,,,,,,,,,,,,,,,,,,,None,,,None,,,,,,,,,,,8,0,8,0,333.6314965,,,,,,,,,,,,,,,,,,,,,,,,,,,,,,,,,,,,,,,,,,,,,,,clips/clip_holo_05_nosub_2.mp4,audios/silence.mp3,visual,333.6261974,334.03130810000005,334.2321422,334.2321422,334.2314369666666,335.4849253,343.56295339999997,343.36274619999995,[6.927464200000031],,343.44539669999995,,,,343.4454365,None,,,343.44547650000004,343.44549559999996,None,,,,,,,,,,325,001,2026-04-01_12h15.42.283,exp_sofc,,2025.2.3,59.921861892099244,2026-04-01 12h15.43.197031 +0200,
,9,0,9,,,,,,,,,,,,,,,,,,,,,,None,,,None,,,,,,,,,,,9,0,9,0,343.56295339999997,,,,,,,,,,,,,,,,,,,,,,,,,,,,,,,,,,,,,,,,,,,,,,,clips/clip_wurst_04_sub_2.mp4,audios/clip_wurst_04_sub_2.mp3,audiovisual,343.55925490000004,343.9550045,344.15588809999997,344.15588809999997,344.15529836666667,,355.99059880000004,355.7784298,"[4.0385029999999915, 7.18691780000006, 9.979400000000055]",,355.8774816,,,,355.87752049999995,None,,,355.87755330000005,355.877573,None,,,,,,,,,,325,001,2026-04-01_12h15.42.283,exp_sofc,,2025.2.3,59.921861892099244,2026-04-01 12h15.43.197031 +0200,
,10,0,10,,,,,,,,,,,,,,,,,,,,,,None,,,None,,,,,,,,,,,10,0,10,0,355.99059880000004,,,,,,,,,,,,,,,,,,,,,,,,,,,,,,,,,,,,,,,,,,,,,,,clips/clip_claude_19_sub_0.mp4,audios/silence.mp3,visual,355.9853528,356.3902412,356.59077879999995,356.59077879999995,356.5903848666667,357.8426716,367.2420948,367.00711520000004,[],,367.1151691,,,,367.11525170000004,None,,,367.1152981,367.11531779999996,None,,,,,,,,,,325,001,2026-04-01_12h15.42.283,exp_sofc,,2025.2.3,59.921861892099244,2026-04-01 12h15.43.197031 +0200,
,11,0,11,,,,,,,,,,,,,,,,,,,,,,2,5.469116299999996,None,None,,,,,,,,,,,11,0,11,0,367.2420948,,,,,,,,,,,,,,,,,,,,,,,,,,,,,,,,,,,,,,,,,,,,,,,clips/clip_claude_05_nosub_2.mp4,audios/clip_claude_05_nosub_2.mp3,audiovisual,367.2375118,367.6253359,367.8262499,367.8262499,367.8261296666667,379.25205359999995,379.25205359999995,379.1337065,[4.6252766000000065],2,379.2468315,379.25205359999995,379.25205359999995,379.25205359999995,384.73580259999994,2,5.469116299999996,None,384.735856,384.7358779,None,,,,,,,,,,325,001,2026-04-01_12h15.42.283,exp_sofc,,2025.2.3,59.921861892099244,2026-04-01 12h15.43.197031 +0200,
,12,0,12,,,,,,,,,,,,,,,,,,,,,,None,,,None,,,,,,,,,,,12,0,12,0,384.85125430000005,,,,,,,,,,,,,,,,,,,,,,,,,,,,,,,,,,,,,,,,,,,,,,,clips/clip_claude_23_sub_0.mp4,audios/silence.mp3,visual,384.84550679999995,385.2507868,385.4512399,385.4512399,385.4510218666667,386.70331810000005,397.8447013,397.6056847,[],,397.70295020000003,,,,397.7030016,None,,,397.70304639999995,397.7030658,None,,,,,,,,,,325,001,2026-04-01_12h15.42.283,exp_sofc,,2025.2.3,59.921861892099244,2026-04-01 12h15.43.197031 +0200,
,13,0,13,,,,,,,,,,,,,,,,,,,,,,None,,,None,,,,,,,,,,,13,0,13,0,397.8447013,,,,,,,,,,,,,,,,,,,,,,,,,,,,,,,,,,,,,,,,,,,,,,,clips/clip_wurst_31_nosub_1.mp4,audios/clip_wurst_31_nosub_1.mp3,audiovisual,397.8396266,398.21263910000005,398.41317990000005,398.41317990000005,398.4129228666667,408.43657989999997,409.6624904,409.43593439999995,[],,409.5400347,,,,409.54008610000005,None,,,409.5401322,409.54016549999994,None,,,,,,,,,,325,001,2026-04-01_12h15.42.283,exp_sofc,,2025.2.3,59.921861892099244,2026-04-01 12h15.43.197031 +0200,
,14,0,14,,,,,,,,,,,,,,,,,,,,,,None,,,None,,,,,,,,,,,14,0,14,0,409.6624904,,,,,,,,,,,,,,,,,,,,,,,,,,,,,,,,,,,,,,,,,,,,,,,clips/clip_lied_20_nosub_2.mp4,audios/clip_lied_20_nosub_2.mp3,audiovisual,409.6566428,410.0533269,410.2536483,410.2536483,410.2535343666666,,421.18080929999996,420.96063879999997,"[3.873811299999943, 8.166548799999987]",,421.0530599,,,,421.05312360000005,None,,,421.05323450000003,421.0532564,None,,,,,,,,,,325,001,2026-04-01_12h15.42.283,exp_sofc,,2025.2.3,59.921861892099244,2026-04-01 12h15.43.197031 +0200,
,15,0,15,,,,,,,,,,,,,,,,,,,,,,None,,,None,,,,,,,,,,,15,0,15,0,421.18080929999996,,,,,,,,,,,,,,,,,,,,,,,,,,,,,,,,,,,,,,,,,,,,,,,clips/clip_hund_29_nosub_0.mp4,audios/clip_hund_29_nosub_0.mp3,audiovisual,421.1769818,421.55240160000005,421.75317470000005,421.75317470000005,421.75265176666665,433.3948507,433.3948507,433.17174539999996,[10.423946300000011],,433.2707448,,,,433.2708364,None,,,433.27087300000005,433.2709049,None,,,,,,,,,,325,001,2026-04-01_12h15.42.283,exp_sofc,,2025.2.3,59.921861892099244,2026-04-01 12h15.43.197031 +0200,
,16,0,16,,,,,,,,,,,,,,,,,,,,,,None,,,None,,,,,,,,,,,16,0,16,0,433.3948507,,,,,,,,,,,,,,,,,,,,,,,,,,,,,,,,,,,,,,,,,,,,,,,clips/clip_herz_13_nosub_0.mp4,audios/clip_herz_13_nosub_0.mp3,audiovisual,433.3897855,433.7715048,433.97186980000004,433.97186980000004,433.9716324666666,,445.3776557,445.1737452,[7.545630899999992],,445.26470729999994,,,,445.2647604,None,,,445.26480819999995,445.26483140000005,None,,,,,,,,,,325,001,2026-04-01_12h15.42.283,exp_sofc,,2025.2.3,59.921861892099244,2026-04-01 12h15.43.197031 +0200,
,17,0,17,,,,,,,,,,,,,,,,,,,,,,None,,,None,,,,,,,,,,,17,0,17,0,445.3776557,,,,,,,,,,,,,,,,,,,,,,,,,,,,,,,,,,,,,,,,,,,,,,,clips/clip_wurst_30_sub_1.mp4,audios/silence.mp3,visual,445.37230279999994,445.765267,445.965921,445.965921,445.9657735666666,447.2174851,456.20394239999996,455.99788739999997,[],,456.0811284,,,,456.08116959999995,None,,,456.081236,456.081285,None,,,,,,,,,,325,001,2026-04-01_12h15.42.283,exp_sofc,,2025.2.3,59.921861892099244,2026-04-01 12h15.43.197031 +0200,
,18,0,18,,,,,,,,,,,,,,,,,,,,,,None,,,None,,,,,,,,,,,18,0,18,0,456.20394239999996,,,,,,,,,,,,,,,,,,,,,,,,,,,,,,,,,,,,,,,,,,,,,,,clips/clip_herz_09_nosub_0.mp4,audios/clip_herz_09_nosub_0.mp3,audiovisual,456.20002569999997,456.5908141,456.7910183,456.7910183,456.79097146666663,468.3084358,468.4944071,468.3086502,[],,468.3991502,,,,468.3992091,None,,,468.399264,468.3993037,None,,,,,,,,,,325,001,2026-04-01_12h15.42.283,exp_sofc,,2025.2.3,59.921861892099244,2026-04-01 12h15.43.197031 +0200,
,19,0,19,,,,,,,,,,,,,,,,,,,,,,None,,,None,,,,,,,,,,,19,0,19,0,468.4944071,,,,,,,,,,,,,,,,,,,,,,,,,,,,,,,,,,,,,,,,,,,,,,,clips/clip_lied_15_nosub_2.mp4,audios/silence.mp3,visual,468.4890302,468.9111627,469.1128992,469.1128992,469.1113529666667,470.3629863,476.64542359999996,476.43977529999995,"[3.3276021000000355, 7.142096200000083]",,476.53508769999996,,,,476.535128,None,,,476.5351922,476.5352735,None,,,,,,,,,,325,001,2026-04-01_12h15.42.283,exp_sofc,,2025.2.3,59.921861892099244,2026-04-01 12h15.43.197031 +0200,
,20,0,20,,,,,,,,,,,,,,,,,,,,,,2,8.06191100000001,None,None,,,,,,,,,,,20,0,20,0,476.64542359999996,,,,,,,,,,,,,,,,,,,,,,,,,,,,,,,,,,,,,,,,,,,,,,,clips/clip_dampf_03_sub_1.mp4,audios/silence.mp3,visual,476.6416252,477.0483746,477.24925929999995,477.24925929999995,477.24868216666664,478.5007101,484.9792304,484.87873690000004,[7.523387899999989],2,484.97285709999994,484.9792304,484.9792304,484.9792304,493.04854179999995,2,8.06191100000001,None,493.0485927,493.04861170000004,None,,,,,,,,,,325,001,2026-04-01_12h15.42.283,exp_sofc,,2025.2.3,59.921861892099244,2026-04-01 12h15.43.197031 +0200,
,21,0,21,,,,,,,,,,,,,,,,,,,,,,2,6.2255983000000015,None,None,,,,,,,,,,,21,0,21,0,493.1468373,,,,,,,,,,,,,,,,,,,,,,,,,,,,,,,,,,,,,,,,,,,,,,,clips/clip_lied_09_sub_1.mp4,audios/silence.mp3,visual,493.14131699999996,493.557269,493.7583132,493.7583132,493.7576535666667,495.0097008,504.3057478999999,504.19087949999994,[],2,504.30234139999993,504.3057478999999,504.3057478999999,504.3057478999999,510.5334273000001,2,6.2255983000000015,None,510.5334800999999,510.5335001000001,None,,,,,,,,,,325,001,2026-04-01_12h15.42.283,exp_sofc,,2025.2.3,59.921861892099244,2026-04-01 12h15.43.197031 +0200,
,22,0,22,,,,,,,,,,,,,,,,,,,,,,None,,,None,,,,,,,,,,,22,0,22,0,510.66913980000004,,,,,,,,,,,,,,,,,,,,,,,,,,,,,,,,,,,,,,,,,,,,,,,clips/clip_herz_01_nosub_1.mp4,audios/clip_herz_01_nosub_1.mp3,audiovisual,510.6634104,511.0351975000001,511.2357214000001,511.2357214000001,511.23546986666656,,522.0549739999999,521.8400259,[6.139117499999884],,521.9282936,,,,521.9283264999999,None,,,521.9283545999999,521.9283713,None,,,,,,,,,,325,001,2026-04-01_12h15.42.283,exp_sofc,,2025.2.3,59.921861892099244,2026-04-01 12h15.43.197031 +0200,
,23,0,23,,,,,,,,,,,,,,,,,,,,,,2,3.9398888000000625,None,None,,,,,,,,,,,23,0,23,0,522.0549739999999,,,,,,,,,,,,,,,,,,,,,,,,,,,,,,,,,,,,,,,,,,,,,,,clips/clip_herz_06_nosub_2.mp4,audios/clip_herz_06_nosub_2.mp3,audiovisual,522.0498372,522.4362486,522.6377977,522.6377977,522.6370735666667,533.3237455999999,533.3237455999999,533.2202488,"[4.813637199999903, 8.069622499999923]",2,533.3200734,533.3237455999999,533.3237455999999,533.3237455999999,537.267947,2,3.9398888000000625,None,537.2680049,537.2680267999999,None,,,,,,,,,,325,001,2026-04-01_12h15.42.283,exp_sofc,,2025.2.3,59.921861892099244,2026-04-01 12h15.43.197031 +0200,
,24,0,24,,,,,,,,,,,,,,,,,,,,,,None,,,None,,,,,,,,,,,24,0,24,0,537.3704746000001,,,,,,,,,,,,,,,,,,,,,,,,,,,,,,,,,,,,,,,,,,,,,,,clips/clip_weißt_01_nosub_1.mp4,audios/silence.mp3,visual,537.3646954999999,537.7769736,537.9777717,537.9777717,537.9772930666666,539.2292511999999,549.2029152,548.9951702000001,[5.945423799999844],,549.0865394,,,,549.0865739999999,None,,,549.0866040999999,549.0866206999999,None,,,,,,,,,,325,001,2026-04-01_12h15.42.283,exp_sofc,,2025.2.3,59.921861892099244,2026-04-01 12h15.43.197031 +0200,
,25,0,25,,,,,,,,,,,,,,,,,,,,,,4,7.8773100000000795,None,None,,,,,,,,,,,25,0,25,0,549.2029152,,,,,,,,,,,,,,,,,,,,,,,,,,,,,,,,,,,,,,,,,,,,,,,clips/clip_claude_02_nosub_1.mp4,audios/clip_claude_02_nosub_1.mp3,audiovisual,549.1996314,549.5873759000001,549.7883916000001,549.7883916000001,549.7876315666667,,559.704559,559.5923571000001,[5.562641299999996],4,559.6981478,559.704559,559.704559,559.704559,567.5826959999999,4,7.8773100000000795,None,567.5827469999999,567.5827661000001,None,,,,,,,,,,325,001,2026-04-01_12h15.42.283,exp_sofc,,2025.2.3,59.921861892099244,2026-04-01 12h15.43.197031 +0200,
,26,0,26,,,,,,,,,,,,,,,,,,,,,,None,,,None,,,,,,,,,,,26,0,26,0,567.7109009000001,,,,,,,,,,,,,,,,,,,,,,,,,,,,,,,,,,,,,,,,,,,,,,,clips/clip_claude_09_nosub_2.mp4,audios/clip_claude_09_nosub_2.mp3,audiovisual,567.7053821,568.0828755,568.2836483000001,568.2836483000001,568.2830327666666,578.7119221,578.7119221,578.4992252,"[4.002386099999967, 8.65301129999989]",,578.5906824000001,,,,578.5907193,None,,,578.5907514999999,578.5907686,None,,,,,,,,,,325,001,2026-04-01_12h15.42.283,exp_sofc,,2025.2.3,59.921861892099244,2026-04-01 12h15.43.197031 +0200,
,27,0,27,,,,,,,,,,,,,,,,,,,,,,None,,,None,,,,,,,,,,,27,0,27,0,578.7119221,,,,,,,,,,,,,,,,,,,,,,,,,,,,,,,,,,,,,,,,,,,,,,,clips/clip_holo_11_sub_2.mp4,audios/clip_holo_11_sub_2.mp3,audiovisual,578.7072407999999,579.0950684,579.2957078,579.2957078,579.2954373666666,589.1625526,589.1625526,588.9462238000001,"[5.590991699999904, 9.19211879999989]",,589.0604834000001,,,,589.0605751999999,None,,,589.060633,589.0606713,None,,,,,,,,,,325,001,2026-04-01_12h15.42.283,exp_sofc,,2025.2.3,59.921861892099244,2026-04-01 12h15.43.197031 +0200,
,28,0,28,,,,,,,,,,,,,,,,,,,,,,None,,,None,,,,,,,,,,,28,0,28,0,589.1625526,,,,,,,,,,,,,,,,,,,,,,,,,,,,,,,,,,,,,,,,,,,,,,,clips/clip_hund_15_sub_1.mp4,audios/silence.mp3,visual,589.156857,589.5613803000001,589.7620148999999,589.7620148999999,589.7617445666667,591.0137781000001,600.4347977,600.2115200999999,[4.799995099999933],,600.3141270000001,,,,600.3142066,None,,,600.3142832000001,600.3143265000001,None,,,,,,,,,,325,001,2026-04-01_12h15.42.283,exp_sofc,,2025.2.3,59.921861892099244,2026-04-01 12h15.43.197031 +0200,
,29,0,29,,,,,,,,,,,,,,,,,,,,,,4,5.7570054000000255,None,None,,,,,,,,,,,29,0,29,0,600.4347977,,,,,,,,,,,,,,,,,,,,,,,,,,,,,,,,,,,,,,,,,,,,,,,clips/clip_claude_17_sub_1.mp4,audios/clip_claude_17_sub_1.mp3,audiovisual,600.4316421999999,600.8289296999999,601.0299216000001,601.0299216000001,601.0291888666666,612.5472347,612.6535362,612.5474168000001,"[1.2825528999999278, 10.234821699999884]",4,612.6475462000001,612.6535362,612.6535362,612.6535362,618.415489,4,5.7570054000000255,None,618.4155599999999,618.4155963000001,None,,,,,,,,,,325,001,2026-04-01_12h15.42.283,exp_sofc,,2025.2.3,59.921861892099244,2026-04-01 12h15.43.197031 +0200,
,30,0,30,,,,,,,,,,,,,,,,,,,,,,None,,,None,,,,,,,,,,,30,0,30,0,618.5294507000001,,,,,,,,,,,,,,,,,,,,,,,,,,,,,,,,,,,,,,,,,,,,,,,clips/clip_herz_05_nosub_0.mp4,audios/silence.mp3,visual,618.5238320000001,618.9291816,619.1302675,619.1302675,619.1294925666666,620.3814588,629.6514892,629.4291877,"[5.935922000000119, 7.317948600000136]",,629.5382380000001,,,,629.5382706,None,,,629.5382984,629.5383142000001,None,,,,,,,,,,325,001,2026-04-01_12h15.42.283,exp_sofc,,2025.2.3,59.921861892099244,2026-04-01 12h15.43.197031 +0200,
,31,0,31,,,,,,,,,,,,,,,,,,,,,,None,,,None,,,,,,,,,,,31,0,31,0,629.6514892,,,,,,,,,,,,,,,,,,,,,,,,,,,,,,,,,,,,,,,,,,,,,,,clips/clip_claude_20_nosub_1.mp4,audios/silence.mp3,visual,629.6460955,630.0464119000001,630.2470499000001,630.2470499000001,630.2465882666665,631.4986659000001,642.4786294,642.2664421,[6.338257200000044],,642.3648791999999,,,,642.3649128,None,,,642.3649484,642.3649932999999,None,,,,,,,,,,325,001,2026-04-01_12h15.42.283,exp_sofc,,2025.2.3,59.921861892099244,2026-04-01 12h15.43.197031 +0200,
,32,0,32,,,,,,,,,,,,,,,,,,,,,,None,,,None,,,,,,,,,,,32,0,32,0,642.4786294,,,,,,,,,,,,,,,,,,,,,,,,,,,,,,,,,,,,,,,,,,,,,,,clips/clip_hund_35_nosub_0.mp4,audios/clip_hund_35_nosub_0.mp3,audiovisual,642.4754668999999,642.8799985999999,643.0808397000001,643.0808397000001,643.0803080666667,653.4964527,653.6919998000001,653.4966371999999,[],,653.590434,,,,653.5904803999999,None,,,653.590526,653.5905505999999,None,,,,,,,,,,325,001,2026-04-01_12h15.42.283,exp_sofc,,2025.2.3,59.921861892099244,2026-04-01 12h15.43.197031 +0200,
,33,0,33,,,,,,,,,,,,,,,,,,,,,,None,,,None,,,,,,,,,,,33,0,33,0,653.6919998000001,,,,,,,,,,,,,,,,,,,,,,,,,,,,,,,,,,,,,,,,,,,,,,,clips/clip_herz_02_nosub_0.mp4,audios/silence.mp3,visual,653.6882228,654.1055661,654.3067452,654.3067452,654.3061953666665,655.5580574999999,666.9079594,666.7092321,[8.980284399999846],,666.8101710999999,,,,666.8102093,None,,,666.8102454,666.8102641999999,None,,,,,,,,,,325,001,2026-04-01_12h15.42.283,exp_sofc,,2025.2.3,59.921861892099244,2026-04-01 12h15.43.197031 +0200,
,34,0,34,,,,,,,,,,,,,,,,,,,,,,None,,,None,,,,,,,,,,,34,0,34,0,666.9079594,,,,,,,,,,,,,,,,,,,,,,,,,,,,,,,,,,,,,,,,,,,,,,,clips/clip_wurst_23_nosub_2.mp4,audios/silence.mp3,visual,666.9026162,667.3180508,667.5188804,667.5188804,667.5182290666667,668.7703623,678.2530818,678.0355321,"[3.471589799999947, 7.726812599999903]",,678.1221303,,,,678.1221693,None,,,678.1222089,678.1222459999999,None,,,,,,,,,,325,001,2026-04-01_12h15.42.283,exp_sofc,,2025.2.3,59.921861892099244,2026-04-01 12h15.43.197031 +0200,
,35,0,35,,,,,,,,,,,,,,,,,,,,,,None,,,None,,,,,,,,,,,35,0,35,0,678.2530818,,,,,,,,,,,,,,,,,,,,,,,,,,,,,,,,,,,,,,,,,,,,,,,clips/clip_weißt_29_sub_1.mp4,audios/clip_weißt_29_sub_1.mp3,audiovisual,678.2495467000001,678.6358153000001,678.8361554999999,678.8361554999999,678.8360644666666,,690.6640210999999,690.4371669,[6.701815199999828],,690.5412039,,,,690.5412406999999,None,,,690.5412722000001,690.5412914999999,None,,,,,,,,,,325,001,2026-04-01_12h15.42.283,exp_sofc,,2025.2.3,59.921861892099244,2026-04-01 12h15.43.197031 +0200,
,36,0,36,,,,,,,,,,,,,,,,,,,,,,None,,,None,,,,,,,,,,,36,0,36,0,690.6640210999999,,,,,,,,,,,,,,,,,,,,,,,,,,,,,,,,,,,,,,,,,,,,,,,clips/clip_herz_15_sub_0.mp4,audios/clip_herz_15_sub_0.mp3,audiovisual,690.6596397000001,691.0464546999999,691.2475562,691.2475562,691.2467828666665,703.4674206,703.4674206,703.2664407,"[3.399845599999935, 7.844037599999865]",,703.3634023,,,,703.3634555000001,None,,,703.3634979000001,703.3635185999999,None,,,,,,,,,,325,001,2026-04-01_12h15.42.283,exp_sofc,,2025.2.3,59.921861892099244,2026-04-01 12h15.43.197031 +0200,
,37,0,37,,,,,,,,,,,,,,,,,,,,,,None,,,None,,,,,,,,,,,37,0,37,0,703.4674206,,,,,,,,,,,,,,,,,,,,,,,,,,,,,,,,,,,,,,,,,,,,,,,clips/clip_holo_21_sub_1.mp4,audios/silence.mp3,visual,703.4622251000001,703.8748956,704.075758,704.075758,704.0751999666666,705.327164,714.4678747999999,714.2745809,"[1.387324499999977, 4.341987200000176]",,714.3690612999999,,,,714.3691144,None,,,714.3692263,714.3692610999999,None,,,,,,,,,,325,001,2026-04-01_12h15.42.283,exp_sofc,,2025.2.3,59.921861892099244,2026-04-01 12h15.43.197031 +0200,
,38,0,38,,,,,,,,,,,,,,,,,,,,,,None,,,None,,,,,,,,,,,38,0,38,0,714.4678747999999,,,,,,,,,,,,,,,,,,,,,,,,,,,,,,,,,,,,,,,,,,,,,,,clips/clip_holo_02_nosub_2.mp4,audios/silence.mp3,visual,714.4643799,714.8835787,715.0843633,715.0843633,715.0838639666667,716.3359000999999,726.5145746000001,726.2849346999999,"[4.009480499999881, 7.954145599999947]",,726.3778457000001,,,,726.3779486000001,None,,,726.3779910000001,726.3780111000001,None,,,,,,,,,,325,001,2026-04-01_12h15.42.283,exp_sofc,,2025.2.3,59.921861892099244,2026-04-01 12h15.43.197031 +0200,
,39,0,39,,,,,,,,,,,,,,,,,,,,,,None,,,None,,,,,,,,,,,39,0,39,0,726.5145746000001,,,,,,,,,,,,,,,,,,,,,,,,,,,,,,,,,,,,,,,,,,,,,,,clips/clip_claude_15_nosub_0.mp4,audios/clip_claude_15_nosub_0.mp3,audiovisual,726.5097455,726.8854271,727.0860885,727.0860885,727.0858215666667,739.1046145,739.2989459999999,739.1047847,[],,739.1854692,,,,739.1855269,None,,,739.1856355,739.1856611999999,None,,,,,,,,,,325,001,2026-04-01_12h15.42.283,exp_sofc,,2025.2.3,59.921861892099244,2026-04-01 12h15.43.197031 +0200,
,40,0,40,,,,,,,,,,,,,,,,,,,,,,None,,,None,,,,,,,,,,,40,0,40,0,739.2989459999999,,,,,,,,,,,,,,,,,,,,,,,,,,,,,,,,,,,,,,,,,,,,,,,clips/clip_claude_06_sub_1.mp4,audios/silence.mp3,visual,739.2933258,739.6972988,739.8983347000001,739.8983347000001,739.8976453666667,741.1495367,752.6491472,752.4505687999999,[4.067375399999946],,752.5469367999999,,,,752.5469782,None,,,752.5470347999999,752.5470637999999,None,,,,,,,,,,325,001,2026-04-01_12h15.42.283,exp_sofc,,2025.2.3,59.921861892099244,2026-04-01 12h15.43.197031 +0200,
,41,0,41,,,,,,,,,,,,,,,,,,,,,,None,,,None,,,,,,,,,,,41,0,41,0,752.6491472,,,,,,,,,,,,,,,,,,,,,,,,,,,,,,,,,,,,,,,,,,,,,,,clips/clip_holo_01_sub_1.mp4,audios/silence.mp3,visual,752.6447682,753.0595053,753.2604652,753.2604652,753.2597757666667,754.5118987000001,762.6767255,762.4584178,[4.138963800000056],,762.5498138,,,,762.5498531000001,None,,,762.5498937,762.5499272,None,,,,,,,,,,325,001,2026-04-01_12h15.42.283,exp_sofc,,2025.2.3,59.921861892099244,2026-04-01 12h15.43.197031 +0200,
,42,0,42,,,,,,,,,,,,,,,,,,,,,,None,,,None,,,,,,,,,,,42,0,42,0,762.6767255,,,,,,,,,,,,,,,,,,,,,,,,,,,,,,,,,,,,,,,,,,,,,,,clips/clip_hund_08_nosub_1.mp4,audios/clip_hund_08_nosub_1.mp3,audiovisual,762.6722460999999,763.0583985999999,763.258994,763.258994,763.2587563666666,773.2746039000001,773.5051748000001,773.2748416,[],,773.3725735999999,,,,773.3726428,None,,,773.3726876000001,773.3727079,None,,,,,,,,,,325,001,2026-04-01_12h15.42.283,exp_sofc,,2025.2.3,59.921861892099244,2026-04-01 12h15.43.197031 +0200,
,43,0,43,,,,,,,,,,,,,,,,,,,,,,None,,,None,,,,,,,,,,,43,0,43,0,773.5051748000001,,,,,,,,,,,,,,,,,,,,,,,,,,,,,,,,,,,,,,,,,,,,,,,clips/clip_wurst_03_nosub_1.mp4,audios/clip_wurst_03_nosub_1.mp3,audiovisual,773.5013666,773.8751967999999,774.0764512999999,774.0764512999999,774.0758967666666,,786.2155052,785.9955117,[1.3223178999999163],,786.0909208999999,,,,786.0909853999999,None,,,786.0910481000001,786.0910919999999,None,,,,,,,,,,325,001,2026-04-01_12h15.42.283,exp_sofc,,2025.2.3,59.921861892099244,2026-04-01 12h15.43.197031 +0200,
,44,0,44,,,,,,,,,,,,,,,,,,,,,,None,,,None,,,,,,,,,,,44,0,44,0,786.2155052,,,,,,,,,,,,,,,,,,,,,,,,,,,,,,,,,,,,,,,,,,,,,,,clips/clip_hund_11_nosub_1.mp4,audios/clip_hund_11_nosub_1.mp3,audiovisual,786.2123216,786.5950158999999,786.7955563999999,786.7955563999999,786.7953520666667,796.5271756,796.7198000999999,796.527368,[6.194803600000114],,796.6068640999999,,,,796.6069035,None,,,796.6069453,796.6069639,None,,,,,,,,,,325,001,2026-04-01_12h15.42.283,exp_sofc,,2025.2.3,59.921861892099244,2026-04-01 12h15.43.197031 +0200,
,45,0,45,,,,,,,,,,,,,,,,,,,,,,None,,,None,,,,,,,,,,,45,0,45,0,796.7198000999999,,,,,,,,,,,,,,,,,,,,,,,,,,,,,,,,,,,,,,,,,,,,,,,clips/clip_holo_06_nosub_2.mp4,audios/silence.mp3,visual,796.7150266000001,797.1195309,797.3203584999999,797.3203584999999,797.3197793666666,798.5717546999999,807.2829531,807.0858625999999,"[5.074123200000031, 8.708282399999916]",,807.1788339,,,,807.1788733000001,None,,,807.1789088999999,807.1789280999999,None,,,,,,,,,,325,001,2026-04-01_12h15.42.283,exp_sofc,,2025.2.3,59.921861892099244,2026-04-01 12h15.43.197031 +0200,
,46,0,46,,,,,,,,,,,,,,,,,,,,,,1,36.73957810000002,None,None,,,,,,,,,,,46,0,46,0,807.2829531,,,,,,,,,,,,,,,,,,,,,,,,,,,,,,,,,,,,,,,,,,,,,,,clips/clip_hund_13_sub_1.mp4,audios/silence.mp3,visual,807.2776223999999,807.6946190000001,807.8949861000001,807.8949861000001,807.8949752666667,809.1464026000001,819.7504225,819.6474823000001,[5.8650992000000315],4,819.7463644,819.7504225,819.7504225,819.7504225,856.4958667999999,1,36.73957810000002,None,856.49595,856.4959764,None,,,,,,,,,,325,001,2026-04-01_12h15.42.283,exp_sofc,,2025.2.3,59.921861892099244,2026-04-01 12h15.43.197031 +0200,
,47,0,47,,,,,,,,,,,,,,,,,,,,,,None,,,None,,,,,,,,,,,47,0,47,0,856.5964306999999,,,,,,,,,,,,,,,,,,,,,,,,,,,,,,,,,,,,,,,,,,,,,,,clips/clip_lied_14_sub_0.mp4,audios/silence.mp3,visual,856.5906536,857.0043886999999,857.2051763,857.2051763,857.2045888666667,858.4565948,867.1350425999999,866.9040955999999,[],,867.0023093,,,,867.0023435999999,None,,,867.0023745999999,867.0023917000001,None,,,,,,,,,,325,001,2026-04-01_12h15.42.283,exp_sofc,,2025.2.3,59.921861892099244,2026-04-01 12h15.43.197031 +0200,
,48,0,48,,,,,,,,,,,,,,,,,,,,,,None,,,None,,,,,,,,,,,48,0,48,0,867.1350425999999,,,,,,,,,,,,,,,,,,,,,,,,,,,,,,,,,,,,,,,,,,,,,,,clips/clip_holo_23_sub_1.mp4,audios/clip_holo_23_sub_1.mp3,audiovisual,867.1301169000001,867.5038886,867.7043627,867.7043627,867.7040424666666,877.7378963000001,877.9365574000001,877.7380739,[],,877.8200641000001,,,,877.8201053,None,,,877.8201764999999,877.8202274,None,,,,,,,,,,325,001,2026-04-01_12h15.42.283,exp_sofc,,2025.2.3,59.921861892099244,2026-04-01 12h15.43.197031 +0200,
,49,0,49,,,,,,,,,,,,,,,,,,,,,,None,,,None,,,,,,,,,,,49,0,49,0,877.9365574000001,,,,,,,,,,,,,,,,,,,,,,,,,,,,,,,,,,,,,,,,,,,,,,,clips/clip_claude_10_sub_0.mp4,audios/clip_claude_10_sub_0.mp3,audiovisual,877.9328885,878.3289268999999,878.5294288,878.5294288,878.5292974666665,889.9692418,889.9692418,889.7470126999999,[],,889.8355678999999,,,,889.8356039,None,,,889.8356552,889.8356753999999,None,,,,,,,,,,325,001,2026-04-01_12h15.42.283,exp_sofc,,2025.2.3,59.921861892099244,2026-04-01 12h15.43.197031 +0200,
,50,0,50,,,,,,,,,,,,,,,,,,,,,,None,,,None,,,,,,,,,,,50,0,50,0,889.9692418,,,,,,,,,,,,,,,,,,,,,,,,,,,,,,,,,,,,,,,,,,,,,,,clips/clip_holo_13_sub_1.mp4,audios/clip_holo_13_sub_1.mp3,audiovisual,889.965398,890.3482412000001,890.5486914,890.5486914,890.5484941666666,902.3665693999999,902.5468959,902.3667372,[4.337169799999856],,902.45292,,,,902.4529580000001,None,,,902.4529932,902.4530096999999,None,,,,,,,,,,325,001,2026-04-01_12h15.42.283,exp_sofc,,2025.2.3,59.921861892099244,2026-04-01 12h15.43.197031 +0200,
,51,0,51,,,,,,,,,,,,,,,,,,,,,,4,9.889765099999977,None,None,,,,,,,,,,,51,0,51,0,902.5468959,,,,,,,,,,,,,,,,,,,,,,,,,,,,,,,,,,,,,,,,,,,,,,,clips/clip_hund_10_sub_0.mp4,audios/silence.mp3,visual,902.5427052,902.9672806000001,903.167878,903.167878,903.1676978666667,904.4197968000001,912.7849722999999,912.6909392,[8.063363799999934],4,912.7784675999999,912.7849722999999,912.7849722999999,912.7849722999999,922.6821324,4,9.889765099999977,None,922.6821814,922.6821990999999,None,,,,,,,,,,325,001,2026-04-01_12h15.42.283,exp_sofc,,2025.2.3,59.921861892099244,2026-04-01 12h15.43.197031 +0200,
,52,0,52,,,,,,,,,,,,,,,,,,,,,,None,,,None,,,,,,,,,,,52,0,52,0,922.8097972,,,,,,,,,,,,,,,,,,,,,,,,,,,,,,,,,,,,,,,,,,,,,,,clips/clip_holo_04_nosub_2.mp4,audios/clip_holo_04_nosub_2.mp3,audiovisual,922.8054443000001,923.1820247,923.3826846,923.3826846,923.3823704666665,935.401269,935.5923538,935.4014563000001,"[3.2348892999998498, 6.856624199999942]",,935.4840007,,,,935.4840336,None,,,935.4840627000001,935.4840789,None,,,,,,,,,,325,001,2026-04-01_12h15.42.283,exp_sofc,,2025.2.3,59.921861892099244,2026-04-01 12h15.43.197031 +0200,
,53,0,53,,,,,,,,,,,,,,,,,,,,,,None,,,None,,,,,,,,,,,53,0,53,0,935.5923538,,,,,,,,,,,,,,,,,,,,,,,,,,,,,,,,,,,,,,,,,,,,,,,clips/clip_claude_27_sub_0.mp4,audios/silence.mp3,visual,935.5870946,935.9919749999999,936.1926094999999,936.1926094999999,936.1922556666666,937.4462845,948.4276110000001,948.2119809000001,[],,948.3102168999999,,,,948.3102523,None,,,948.3102939,948.310318,None,,,,,,,,,,325,001,2026-04-01_12h15.42.283,exp_sofc,,2025.2.3,59.921861892099244,2026-04-01 12h15.43.197031 +0200,
,54,0,54,,,,,,,,,,,,,,,,,,,,,,None,,,None,,,,,,,,,,,54,0,54,0,948.4276110000001,,,,,,,,,,,,,,,,,,,,,,,,,,,,,,,,,,,,,,,,,,,,,,,clips/clip_herz_07_nosub_2.mp4,audios/clip_herz_07_nosub_2.mp3,audiovisual,948.4236352999999,948.8120477,949.0123851999999,949.0123851999999,949.0123126666667,961.2535849000001,961.2535849000001,961.0311426999999,[10.652940499999886],,961.1226388,,,,961.1226730000001,None,,,961.1227054999999,961.1227251,None,,,,,,,,,,325,001,2026-04-01_12h15.42.283,exp_sofc,,2025.2.3,59.921861892099244,2026-04-01 12h15.43.197031 +0200,
,55,0,55,,,,,,,,,,,,,,,,,,,,,,None,,,None,,,,,,,,,,,55,0,55,0,961.2535849000001,,,,,,,,,,,,,,,,,,,,,,,,,,,,,,,,,,,,,,,,,,,,,,,clips/clip_claude_13_sub_0.mp4,audios/clip_claude_13_sub_0.mp3,audiovisual,961.2504165,961.6314809,961.8320160999999,961.8320160999999,961.8318239666667,971.0630610000001,971.2802839999999,971.063281,[],,971.1580566,,,,971.1580988999999,None,,,971.1581417,971.1581738,None,,,,,,,,,,325,001,2026-04-01_12h15.42.283,exp_sofc,,2025.2.3,59.921861892099244,2026-04-01 12h15.43.197031 +0200,
,56,0,56,,,,,,,,,,,,,,,,,,,,,,None,,,None,,,,,,,,,,,56,0,56,0,971.2802839999999,,,,,,,,,,,,,,,,,,,,,,,,,,,,,,,,,,,,,,,,,,,,,,,clips/clip_hund_30_sub_0.mp4,audios/silence.mp3,visual,971.2748455000001,971.6634392000001,971.8655561,971.8655561,971.8635859666667,973.1154257999999,984.1048866000001,983.8826515999999,[],,983.9814530000001,,,,983.9815134,None,,,983.9815715,983.9815937999999,None,,,,,,,,,,325,001,2026-04-01_12h15.42.283,exp_sofc,,2025.2.3,59.921861892099244,2026-04-01 12h15.43.197031 +0200,
,57,0,57,,,,,,,,,,,,,,,,,,,,,,None,,,None,,,,,,,,,,,57,0,57,0,984.1048866000001,,,,,,,,,,,,,,,,,,,,,,,,,,,,,,,,,,,,,,,,,,,,,,,clips/clip_wurst_27_sub_1.mp4,audios/clip_wurst_27_sub_1.mp3,audiovisual,984.1017419,984.4831098,984.6835818,984.6835818,984.6833019666667,,995.0876063999999,994.8845658,[5.971662899999956],,994.9691831,,,,994.9692203,None,,,994.9692574000001,994.9692783999999,None,,,,,,,,,,325,001,2026-04-01_12h15.42.283,exp_sofc,,2025.2.3,59.921861892099244,2026-04-01 12h15.43.197031 +0200,
,58,0,58,,,,,,,,,,,,,,,,,,,,,,None,,,None,,,,,,,,,,,58,0,58,0,995.0876063999999,,,,,,,,,,,,,,,,,,,,,,,,,,,,,,,,,,,,,,,,,,,,,,,clips/clip_hund_32_nosub_1.mp4,audios/clip_hund_32_nosub_1.mp3,audiovisual,995.0839725000001,995.4754829999999,995.6764037,995.6764037,995.6759108666668,1005.7083215,1005.9045865,1005.7085239,"[4.7297748000000865, 6.54411970000001]",,1005.7957561000001,,,,1005.795815,None,,,1005.7958490999999,1005.7958676000001,None,,,,,,,,,,325,001,2026-04-01_12h15.42.283,exp_sofc,,2025.2.3,59.921861892099244,2026-04-01 12h15.43.197031 +0200,
,59,0,59,,,,,,,,,,,,,,,,,,,,,,None,,,space,14.314672200000132,None,,,,,,,,,59,0,59,0,1005.9045865,,,,,,,,,,,,,,,,,,,,,,,,,,,,,,,,,,,,,,,,,,,,,,,clips/clip_lied_12_sub_0.mp4,audios/silence.mp3,visual,1005.8990394,1006.3006415,1006.5013672,1006.5013672,1006.5008436666667,1007.7528170999999,1015.6314018,1015.5315894,[],,1015.6237209999999,,,,1015.6237553000001,None,,,1015.6237921,1029.9630362999999,space,1015.6314018,1015.6314018,1015.6314018,14.314672200000132,None,,,,,325,001,2026-04-01_12h15.42.283,exp_sofc,,2025.2.3,59.921861892099244,2026-04-01 12h15.43.197031 +0200,
,60,0,60,,,,,,,,,,,,,,,,,,,,,,None,,,None,,,,,,,,,,,60,0,60,0,1030.0853191,,,,,,,,,,,,,,,,,,,,,,,,,,,,,,,,,,,,,,,,,,,,,,,clips/clip_weißt_26_nosub_1.mp4,audios/clip_weißt_26_nosub_1.mp3,audiovisual,1030.0815118,1030.4635616,1030.6639434,1030.6639434,1030.6638567666666,1040.8969378,1041.0914266,1040.8971258,[7.274037399999997],,1040.9870435,,,,1040.9870837,None,,,1040.9871216,1040.9871401999999,None,,,,,,,,,,325,001,2026-04-01_12h15.42.283,exp_sofc,,2025.2.3,59.921861892099244,2026-04-01 12h15.43.197031 +0200,
,61,0,61,,,,,,,,,,,,,,,,,,,,,,None,,,None,,,,,,,,,,,61,0,61,0,1041.0914266,,,,,,,,,,,,,,,,,,,,,,,,,,,,,,,,,,,,,,,,,,,,,,,clips/clip_wurst_32_nosub_1.mp4,audios/silence.mp3,visual,1041.085935,1041.4890486,1041.6900963,1041.6900963,1041.6893538666666,1042.9408142,1052.5041991,1052.3065293,[7.1248507000000245],,1052.4016406,,,,1052.4016773,None,,,1052.4017144,1052.4017321,None,,,,,,,,,,325,001,2026-04-01_12h15.42.283,exp_sofc,,2025.2.3,59.921861892099244,2026-04-01 12h15.43.197031 +0200,
,62,0,62,,,,,,,,,,,,,,,,,,,,,,None,,,None,,,,,,,,,,,62,0,62,0,1052.5041991,,,,,,,,,,,,,,,,,,,,,,,,,,,,,,,,,,,,,,,,,,,,,,,clips/clip_claude_18_sub_0.mp4,audios/silence.mp3,visual,1052.4989071,1052.9145879,1053.1155517,1053.1155517,1053.1148794666667,1054.3669884,1062.3763178,1062.1468914,[],,1062.2482292,,,,1062.2482721,None,,,1062.2483629,1062.248395,None,,,,,,,,,,325,001,2026-04-01_12h15.42.283,exp_sofc,,2025.2.3,59.921861892099244,2026-04-01 12h15.43.197031 +0200,
,63,0,63,,,,,,,,,,,,,,,,,,,,,,None,,,None,,,,,,,,,,,63,0,63,0,1062.3763178,,,,,,,,,,,,,,,,,,,,,,,,,,,,,,,,,,,,,,,,,,,,,,,clips/clip_holo_12_nosub_1.mp4,audios/clip_holo_12_nosub_1.mp3,audiovisual,1062.3733509,1062.7633019,1062.963679,1062.963679,1062.9635332666667,1072.9966546,1073.2138049,1072.9968697,[8.493372399999998],,1073.1069841,,,,1073.1070186,None,,,1073.1070618,1073.1070826,None,,,,,,,,,,325,001,2026-04-01_12h15.42.283,exp_sofc,,2025.2.3,59.921861892099244,2026-04-01 12h15.43.197031 +0200,
,64,0,64,,,,,,,,,,,,,,,,,,,,,,None,,,None,,,,,,,,,,,64,0,64,0,1073.2138049,,,,,,,,,,,,,,,,,,,,,,,,,,,,,,,,,,,,,,,,,,,,,,,clips/clip_weißt_27_nosub_1.mp4,audios/silence.mp3,visual,1073.2093422,1073.6134605,1073.8150223,1073.8150223,1073.8136832666667,1075.0657094,1084.1152451,1083.8964334,[7.724242499999946],,1083.9908454,,,,1083.9908995,None,,,1083.9909913,1083.9910169,None,,,,,,,,,,325,001,2026-04-01_12h15.42.283,exp_sofc,,2025.2.3,59.921861892099244,2026-04-01 12h15.43.197031 +0200,
,65,0,65,,,,,,,,,,,,,,,,,,,,,,None,,,None,,,,,,,,,,,65,0,65,0,1084.1152451,,,,,,,,,,,,,,,,,,,,,,,,,,,,,,,,,,,,,,,,,,,,,,,clips/clip_wurst_34_sub_2.mp4,audios/clip_wurst_34_sub_2.mp3,audiovisual,1084.111168,1084.4972163,1084.6977902,1084.6977902,1084.6972554666665,1093.2281859,1093.419918,1093.228395,"[4.290282000000161, 6.085807700000032]",,1093.3164055,,,,1093.3164418,None,,,1093.3164769,1093.3164958,None,,,,,,,,,,325,001,2026-04-01_12h15.42.283,exp_sofc,,2025.2.3,59.921861892099244,2026-04-01 12h15.43.197031 +0200,
,66,0,66,,,,,,,,,,,,,,,,,,,,,,None,,,None,,,,,,,,,,,66,0,66,0,1093.419918,,,,,,,,,,,,,,,,,,,,,,,,,,,,,,,,,,,,,,,,,,,,,,,clips/clip_hund_27_sub_1.mp4,audios/silence.mp3,visual,1093.4145632,1093.8196816,1094.0203714,1094.0203714,1094.0199142666665,1095.2719891,1104.4454477,1104.2537772,"[1.3924853999999414, 4.868969799999832]",,1104.3418043,,,,1104.3418924,None,,,1104.3419538,1104.3419814,None,,,,,,,,,,325,001,2026-04-01_12h15.42.283,exp_sofc,,2025.2.3,59.921861892099244,2026-04-01 12h15.43.197031 +0200,
,67,0,67,,,,,,,,,,,,,,,,,,,,,,3,4.142763399999922,None,None,,,,,,,,,,,67,0,67,0,1104.4454477,,,,,,,,,,,,,,,,,,,,,,,,,,,,,,,,,,,,,,,,,,,,,,,clips/clip_holo_20_nosub_1.mp4,audios/silence.mp3,visual,1104.4400944,1104.8450706,1105.0459226,1105.0459226,1105.0453370666667,1106.2976181,1114.5800829,1114.4775823,[],3,1114.5745436,1114.5800829,1114.5800829,1114.5800829,1118.725238,3,4.142763399999922,None,1118.7253055,1118.7253319,None,,,,,,,,,,325,001,2026-04-01_12h15.42.283,exp_sofc,,2025.2.3,59.921861892099244,2026-04-01 12h15.43.197031 +0200,
,68,0,68,,,,,,,,,,,,,,,,,,,,,,None,,,None,,,,,,,,,,,68,0,68,0,1118.8571372,,,,,,,,,,,,,,,,,,,,,,,,,,,,,,,,,,,,,,,,,,,,,,,clips/clip_weißt_28_nosub_1.mp4,audios/clip_weißt_28_nosub_1.mp3,audiovisual,1118.8513584,1119.2260597,1119.4268573,1119.4268573,1119.4263842666667,1129.7394737,1129.7394737,1129.5090295,"[2.128222899999855, 6.7550377999998545]",,1129.6077842,,,,1129.6078177,None,,,1129.6078457,1129.6078631,None,,,,,,,,,,325,001,2026-04-01_12h15.42.283,exp_sofc,,2025.2.3,59.921861892099244,2026-04-01 12h15.43.197031 +0200,
,69,0,69,,,,,,,,,,,,,,,,,,,,,,None,,,None,,,,,,,,,,,69,0,69,0,1129.7394737,,,,,,,,,,,,,,,,,,,,,,,,,,,,,,,,,,,,,,,,,,,,,,,clips/clip_claude_21_sub_1.mp4,audios/clip_claude_21_sub_1.mp3,audiovisual,1129.7354647,1130.1092658,1130.3099365,1130.3099365,1130.3096997666667,1142.7932768,1142.7932768,1142.5625509,[9.695950799999991],,1142.6538368,,,,1142.6538764,None,,,1142.6539186,1142.6539394,None,,,,,,,,,,325,001,2026-04-01_12h15.42.283,exp_sofc,,2025.2.3,59.921861892099244,2026-04-01 12h15.43.197031 +0200,
,70,0,70,,,,,,,,,,,,,,,,,,,,,,None,,,None,,,,,,,,,,,70,0,70,0,1142.7932768,,,,,,,,,,,,,,,,,,,,,,,,,,,,,,,,,,,,,,,,,,,,,,,clips/clip_hund_07_sub_1.mp4,audios/clip_hund_07_sub_1.mp3,audiovisual,1142.7900702,1143.1629509,1143.3636004,1143.3636004,1143.3632201666667,1155.2072413,1155.2072413,1154.9817543,[6.40909929999998],,1155.0785076,,,,1155.0785838,None,,,1155.0786433,1155.0786827,None,,,,,,,,,,325,001,2026-04-01_12h15.42.283,exp_sofc,,2025.2.3,59.921861892099244,2026-04-01 12h15.43.197031 +0200,
,71,0,71,,,,,,,,,,,,,,,,,,,,,,None,,,None,,,,,,,,,,,71,0,71,0,1155.2072413,,,,,,,,,,,,,,,,,,,,,,,,,,,,,,,,,,,,,,,,,,,,,,,clips/clip_holo_16_nosub_1.mp4,audios/clip_holo_16_nosub_1.mp3,audiovisual,1155.2037034,1155.5824055,1155.7832908999999,1155.7832908999999,1155.7827931666666,1168.0150321,1168.0150321,1167.8016037,"[1.4477077000001373, 10.26556830000004]",,1167.8927524,,,,1167.8927936,None,,,1167.8928287,1167.8928501999999,None,,,,,,,,,,325,001,2026-04-01_12h15.42.283,exp_sofc,,2025.2.3,59.921861892099244,2026-04-01 12h15.43.197031 +0200,
,72,0,72,,,,,,,,,,,,,,,,,,,,,,None,,,None,,,,,,,,,,,72,0,72,0,1168.0150321,,,,,,,,,,,,,,,,,,,,,,,,,,,,,,,,,,,,,,,,,,,,,,,clips/clip_lied_07_sub_1.mp4,audios/clip_lied_07_sub_1.mp3,audiovisual,1168.0115106,1168.399405,1168.5998099,1168.5998099,1168.5996825666666,1177.6304607,1177.8563237,1177.6306727,[4.479127500000004],,1177.7316187,,,,1177.7316568,None,,,1177.7316903,1177.7317083,None,,,,,,,,,,325,001,2026-04-01_12h15.42.283,exp_sofc,,2025.2.3,59.921861892099244,2026-04-01 12h15.43.197031 +0200,
,73,0,73,,,,,,,,,,,,,,,,,,,,,,None,,,None,,,,,,,,,,,73,0,73,0,1177.8563237,,,,,,,,,,,,,,,,,,,,,,,,,,,,,,,,,,,,,,,,,,,,,,,clips/clip_holo_28_nosub_0.mp4,audios/clip_holo_28_nosub_0.mp3,audiovisual,1177.8531522,1178.2314155,1178.4323338,1178.4323338,1178.4316225666666,1186.962416,1187.1856943,1186.962625,[],,1187.0511605,,,,1187.051262,None,,,1187.051324,1187.0513547,None,,,,,,,,,,325,001,2026-04-01_12h15.42.283,exp_sofc,,2025.2.3,59.921861892099244,2026-04-01 12h15.43.197031 +0200,
,74,0,74,,,,,,,,,,,,,,,,,,,,,,None,,,None,,,,,,,,,,,74,0,74,0,1187.1856943,,,,,,,,,,,,,,,,,,,,,,,,,,,,,,,,,,,,,,,,,,,,,,,clips/clip_claude_11_sub_0.mp4,audios/clip_claude_11_sub_0.mp3,audiovisual,1187.1815279,1187.5625731,1187.763182,1187.763182,1187.7628069666666,1197.7786274,1198.0203643,1197.7788408,[],,1197.8839418,,,,1197.8839769,None,,,1197.8840127,1197.8840291,None,,,,,,,,,,325,001,2026-04-01_12h15.42.283,exp_sofc,,2025.2.3,59.921861892099244,2026-04-01 12h15.43.197031 +0200,
,75,0,75,,,,,,,,,,,,,,,,,,,,,,None,,,None,,,,,,,,,,,75,0,75,0,1198.0203643,,,,,,,,,,,,,,,,,,,,,,,,,,,,,,,,,,,,,,,,,,,,,,,clips/clip_holo_18_sub_0.mp4,audios/clip_holo_18_sub_0.mp3,audiovisual,1198.0154582,1198.3864412,1198.5871024,1198.5871024,1198.5867570666667,1210.6587926,1210.6587926,1210.439141,"[6.551498300000048, 8.80332589999989]",,1210.5314614,,,,1210.531499,None,,,1210.5315304,1210.5315548,None,,,,,,,,,,325,001,2026-04-01_12h15.42.283,exp_sofc,,2025.2.3,59.921861892099244,2026-04-01 12h15.43.197031 +0200,
,76,0,76,,,,,,,,,,,,,,,,,,,,,,3,4.22254810000004,None,None,,,,,,,,,,,76,0,76,0,1210.6587926,,,,,,,,,,,,,,,,,,,,,,,,,,,,,,,,,,,,,,,,,,,,,,,clips/clip_hund_18_sub_1.mp4,audios/clip_hund_18_sub_1.mp3,audiovisual,1210.6553274,1211.039651,1211.2419526,1211.2419526,1211.2408682666667,1221.2729698,1221.3876376,1221.273183,[6.876142599999866],3,1221.3812282,1221.3876376,1221.3876376,1221.3876376,1225.6106304,3,4.22254810000004,None,1225.6106838,1225.6107018,None,,,,,,,,,,325,001,2026-04-01_12h15.42.283,exp_sofc,,2025.2.3,59.921861892099244,2026-04-01 12h15.43.197031 +0200,
,77,0,77,,,,,,,,,,,,,,,,,,,,,,4,3.6693844999999783,None,None,,,,,,,,,,,77,0,77,0,1225.7503978,,,,,,,,,,,,,,,,,,,,,,,,,,,,,,,,,,,,,,,,,,,,,,,clips/clip_weißt_22_sub_0.mp4,audios/clip_weißt_22_sub_0.mp3,audiovisual,1225.744392,1226.1164124,1226.3170954,1226.3170954,1226.3168168666666,,1237.540653,1237.4211281,[],4,1237.5344045,1237.540653,1237.540653,1237.540653,1241.2129039,4,3.6693844999999783,None,1241.2129629,1241.2129877,None,,,,,,,,,,325,001,2026-04-01_12h15.42.283,exp_sofc,,2025.2.3,59.921861892099244,2026-04-01 12h15.43.197031 +0200,
,78,0,78,,,,,,,,,,,,,,,,,,,,,,1,7.2637608,None,None,,,,,,,,,,,78,0,78,0,1241.3228994,,,,,,,,,,,,,,,,,,,,,,,,,,,,,,,,,,,,,,,,,,,,,,,clips/clip_dampf_04_sub_1.mp4,audios/silence.mp3,visual,1241.3177665,1241.7234727,1241.9244255,1241.9244255,1241.9238328666665,1243.1758111,1251.6587528,1251.5556687,[5.273198699999966],1,1251.6522928,1251.6587528,1251.6587528,1251.6587528,1258.9255666,1,7.2637608,None,1258.9256199,1258.925646,None,,,,,,,,,,325,001,2026-04-01_12h15.42.283,exp_sofc,,2025.2.3,59.921861892099244,2026-04-01 12h15.43.197031 +0200,
,79,0,79,,,,,,,,,,,,,,,,,,,,,,None,,,None,,,,,,,,,,,79,0,79,0,1259.0393107,,,,,,,,,,,,,,,,,,,,,,,,,,,,,,,,,,,,,,,,,,,,,,,clips/clip_claude_08_sub_0.mp4,audios/silence.mp3,visual,1259.0335419,1259.4392685,1259.6405696,1259.6405696,1259.6397375666666,1260.8912009,1269.481131,1269.2712915,[],,1269.3614858,,,,1269.3615284,None,,,1269.361559,1269.3615751,None,,,,,,,,,,325,001,2026-04-01_12h15.42.283,exp_sofc,,2025.2.3,59.921861892099244,2026-04-01 12h15.43.197031 +0200,
,80,0,80,,,,,,,,,,,,,,,,,,,,,,1,11.996046399999841,None,None,,,,,,,,,,,80,0,80,0,1269.481131,,,,,,,,,,,,,,,,,,,,,,,,,,,,,,,,,,,,,,,,,,,,,,,clips/clip_holo_22_nosub_1.mp4,audios/silence.mp3,visual,1269.4755721,1269.8640688,1270.0648075,1270.0648075,1270.0643655666665,1271.3179527,1279.3706169,1279.2623122,[9.104534700000158],1,1279.3672584,1279.3706169,1279.3706169,1279.3706169,1291.373566,1,11.996046399999841,None,1291.3736167,1291.3736362,None,,,,,,,,,,325,001,2026-04-01_12h15.42.283,exp_sofc,,2025.2.3,59.921861892099244,2026-04-01 12h15.43.197031 +0200,
,81,0,81,,,,,,,,,,,,,,,,,,,,,,None,,,None,,,,,,,,,,,81,0,81,0,1291.5061787,,,,,,,,,,,,,,,,,,,,,,,,,,,,,,,,,,,,,,,,,,,,,,,clips/clip_hund_24_sub_1.mp4,audios/clip_hund_24_sub_1.mp3,audiovisual,1291.5021114,1291.8745143,1292.0773445,1292.0773445,1292.0745161666666,1304.3006642,1304.3006642,1304.094371,[8.19707910000011],,1304.1803035,,,,1304.1803378,None,,,1304.180367,1304.1803837,None,,,,,,,,,,325,001,2026-04-01_12h15.42.283,exp_sofc,,2025.2.3,59.921861892099244,2026-04-01 12h15.43.197031 +0200,
,82,0,82,,,,,,,,,,,,,,,,,,,,,,None,,,None,,,,,,,,,,,82,0,82,0,1304.3006642,,,,,,,,,,,,,,,,,,,,,,,,,,,,,,,,,,,,,,,,,,,,,,,clips/clip_holo_17_sub_0.mp4,audios/clip_holo_17_sub_0.mp3,audiovisual,1304.296948,1304.685615,1304.8865685,1304.8865685,1304.8858685666667,1314.7187849,1314.9542817,1314.718962,[1.2621804999998858],,1314.8198935,,,,1314.8199403,None,,,1314.8199758,1314.8199954,None,,,,,,,,,,325,001,2026-04-01_12h15.42.283,exp_sofc,,2025.2.3,59.921861892099244,2026-04-01 12h15.43.197031 +0200,
,83,0,83,,,,,,,,,,,,,,,,,,,,,,4,10.37051919999999,None,None,,,,,,,,,,,83,0,83,0,1314.9542817,,,,,,,,,,,,,,,,,,,,,,,,,,,,,,,,,,,,,,,,,,,,,,,clips/clip_wurst_19_sub_0.mp4,audios/clip_wurst_19_sub_0.mp3,audiovisual,1314.9507709,1315.3217903,1315.5244147,1315.5244147,1315.5240497666666,1326.5485707,1326.6747208,1326.5487627,[],4,1326.6704581,1326.6747208,1326.6747208,1326.6747208,1337.0485308,4,10.37051919999999,None,1337.0485824,1337.0486118,None,,,,,,,,,,325,001,2026-04-01_12h15.42.283,exp_sofc,,2025.2.3,59.921861892099244,2026-04-01 12h15.43.197031 +0200,
,84,0,84,,,,,,,,,,,,,,,,,,,,,,None,,,None,,,,,,,,,,,84,0,84,0,1337.1829272,,,,,,,,,,,,,,,,,,,,,,,,,,,,,,,,,,,,,,,,,,,,,,,clips/clip_weißt_25_sub_1.mp4,audios/clip_weißt_25_sub_1.mp3,audiovisual,1337.1789404,1337.5504383,1337.7510313,1337.7510313,1337.7507482666667,1349.9618169,1349.9618169,1349.7708604,[],,1349.857926,,,,1349.8579641,None,,,1349.8579937,1349.8580106,None,,,,,,,,,,325,001,2026-04-01_12h15.42.283,exp_sofc,,2025.2.3,59.921861892099244,2026-04-01 12h15.43.197031 +0200,
,85,0,85,,,,,,,,,,,,,,,,,,,,,,None,,,None,,,,,,,,,,,85,0,85,0,1349.9618169,,,,,,,,,,,,,,,,,,,,,,,,,,,,,,,,,,,,,,,,,,,,,,,clips/clip_lied_02_nosub_2.mp4,audios/silence.mp3,visual,1349.956523,1350.3614705,1350.5619741,1350.5619741,1350.5617210666667,1351.8137411,1361.8156942,1361.5809139,"[7.79227660000015, 9.738946400000032]",,1361.6856654,,,,1361.6857114,None,,,1361.6857538,1361.6857757,None,,,,,,,,,,325,001,2026-04-01_12h15.42.283,exp_sofc,,2025.2.3,59.921861892099244,2026-04-01 12h15.43.197031 +0200,
,86,0,86,,,,,,,,,,,,,,,,,,,,,,None,,,None,,,,,,,,,,,86,0,86,0,1361.8156942,,,,,,,,,,,,,,,,,,,,,,,,,,,,,,,,,,,,,,,,,,,,,,,clips/clip_herz_17_nosub_0.mp4,audios/clip_herz_17_nosub_0.mp3,audiovisual,1361.811935,1362.1997452,1362.4020928,1362.4020928,1362.4001079666666,1370.8480703,1370.8480703,1370.6137334,[5.740696099999923],,1370.7125102,,,,1370.7125689,None,,,1370.7126017,1370.7126212,None,,,,,,,,,,325,001,2026-04-01_12h15.42.283,exp_sofc,,2025.2.3,59.921861892099244,2026-04-01 12h15.43.197031 +0200,
,87,0,87,,,,,,,,,,,,,,,,,,,,,,None,,,None,,,,,,,,,,,87,0,87,0,1370.8480703,,,,,,,,,,,,,,,,,,,,,,,,,,,,,,,,,,,,,,,,,,,,,,,clips/clip_claude_24_sub_1.mp4,audios/clip_claude_24_sub_1.mp3,audiovisual,1370.8443033,1371.2157827,1371.4165205,1371.4165205,1371.4165899666666,,1377.8122349,1377.616262,[6.0182199000000764],,1377.7110671,,,,1377.7111526,None,,,1377.7112034,1377.7112269,None,,,,,,,,,,325,001,2026-04-01_12h15.42.283,exp_sofc,,2025.2.3,59.921861892099244,2026-04-01 12h15.43.197031 +0200,
,88,0,88,,,,,,,,,,,,,,,,,,,,,,None,,,None,,,,,,,,,,,88,0,88,0,1377.8122349,,,,,,,,,,,,,,,,,,,,,,,,,,,,,,,,,,,,,,,,,,,,,,,clips/clip_weißt_17_nosub_0.mp4,audios/silence.mp3,visual,1377.806878,1378.218563,1378.419436,1378.419436,1378.4194893666665,1379.6707797,1390.146902,1389.9371436,[],,1390.0232369,,,,1390.0233228,None,,,1390.0233915,1390.0234295,None,,,,,,,,,,325,001,2026-04-01_12h15.42.283,exp_sofc,,2025.2.3,59.921861892099244,2026-04-01 12h15.43.197031 +0200,
,89,0,89,,,,,,,,,,,,,,,,,,,,,,None,,,None,,,,,,,,,,,89,0,89,0,1390.146902,,,,,,,,,,,,,,,,,,,,,,,,,,,,,,,,,,,,,,,,,,,,,,,clips/clip_wurst_25_sub_1.mp4,audios/clip_wurst_25_sub_1.mp3,audiovisual,1390.1434768,1390.531348,1390.7341242,1390.7341242,1390.7317835666665,1402.1321406,1402.1321406,1401.9500396,[],,1402.0353546,,,,1402.0354389,None,,,1402.0354887,1402.0355081,None,,,,,,,,,,325,001,2026-04-01_12h15.42.283,exp_sofc,,2025.2.3,59.921861892099244,2026-04-01 12h15.43.197031 +0200,
,90,0,90,,,,,,,,,,,,,,,,,,,,,,None,,,None,,,,,,,,,,,90,0,90,0,1402.1321406,,,,,,,,,,,,,,,,,,,,,,,,,,,,,,,,,,,,,,,,,,,,,,,clips/clip_wurst_18_nosub_0.mp4,audios/silence.mp3,visual,1402.1296468,1402.5504321,1402.7518434,1402.7518434,1402.7509265666667,1404.0027533,1412.9727329,1412.7832226,[],,1412.874101,,,,1412.8741853,None,,,1412.8742344,1412.8742515,None,,,,,,,,,,325,001,2026-04-01_12h15.42.283,exp_sofc,,2025.2.3,59.921861892099244,2026-04-01 12h15.43.197031 +0200,
,91,0,91,,,,,,,,,,,,,,,,,,,,,,1,4.264470500000016,None,None,,,,,,,,,,,91,0,91,0,1412.9727329,,,,,,,,,,,,,,,,,,,,,,,,,,,,,,,,,,,,,,,,,,,,,,,clips/clip_weißt_16_nosub_0.mp4,audios/silence.mp3,visual,1412.9684261,1413.3741208,1413.5741953,1413.5741953,1413.5740858666666,1414.8258101,1424.2129062,1424.0911741,[],1,1424.2094368,1424.2129062,1424.2129062,1424.2129062,1428.4813366,1,4.264470500000016,None,1428.4813976,1428.4814236,None,,,,,,,,,,325,001,2026-04-01_12h15.42.283,exp_sofc,,2025.2.3,59.921861892099244,2026-04-01 12h15.43.197031 +0200,
,92,0,92,,,,,,,,,,,,,,,,,,,,,,None,,,None,,,,,,,,,,,92,0,92,0,1428.579617,,,,,,,,,,,,,,,,,,,,,,,,,,,,,,,,,,,,,,,,,,,,,,,clips/clip_hund_05_sub_0.mp4,audios/silence.mp3,visual,1428.5740553,1428.9903271,1429.1903158,1429.1903158,1429.1897600666666,1430.441776,1440.4041894,1440.2077642,[4.2638473000001795],,1440.2957443,,,,1440.2957791,None,,,1440.2958096,1440.2958247,None,,,,,,,,,,325,001,2026-04-01_12h15.42.283,exp_sofc,,2025.2.3,59.921861892099244,2026-04-01 12h15.43.197031 +0200,
,93,0,93,,,,,,,,,,,,,,,,,,,,,,2,6.60251930000004,None,None,,,,,,,,,,,93,0,93,0,1440.4041894,,,,,,,,,,,,,,,,,,,,,,,,,,,,,,,,,,,,,,,,,,,,,,,clips/clip_wurst_29_nosub_1.mp4,audios/silence.mp3,visual,1440.4004508,1440.7995592,1441.0005015,1441.0005015,1441.0000345666667,1442.2519665,1453.1224587,1453.0196707,[],2,1453.1187067,1453.1224587,1453.1224587,1453.1224587,1459.7375212,2,6.60251930000004,None,1459.7375692,1459.7375858999999,None,,,,,,,,,,325,001,2026-04-01_12h15.42.283,exp_sofc,,2025.2.3,59.921861892099244,2026-04-01 12h15.43.197031 +0200,
,94,0,94,,,,,,,,,,,,,,,,,,,,,,None,,,None,,,,,,,,,,,94,0,94,0,1459.8666004,,,,,,,,,,,,,,,,,,,,,,,,,,,,,,,,,,,,,,,,,,,,,,,clips/clip_dampf_02_sub_1.mp4,audios/clip_dampf_02_sub_1.mp3,audiovisual,1459.862906,1460.2383064,1460.4390123,1460.4390123,1460.4383628666667,1469.9907895,1469.9907895,1469.7690068,[4.7987818999999945],,1469.8553597,,,,1469.8553931,None,,,1469.8554229,1469.8554394,None,,,,,,,,,,325,001,2026-04-01_12h15.42.283,exp_sofc,,2025.2.3,59.921861892099244,2026-04-01 12h15.43.197031 +0200,
,95,0,95,,,,,,,,,,,,,,,,,,,,,,None,,,None,,,,,,,,,,,95,0,95,0,1469.9907895,,,,,,,,,,,,,,,,,,,,,,,,,,,,,,,,,,,,,,,,,,,,,,,clips/clip_lied_18_nosub_2.mp4,audios/clip_lied_18_nosub_2.mp3,audiovisual,1469.9874904,1470.3541594,1470.5557156,1470.5557156,1470.5552094666666,,1481.4686168,1481.2551207,"[5.36888399999998, 7.519964399999935]",,1481.3479975,,,,1481.3480861,None,,,1481.348132,1481.34816,None,,,,,,,,,,325,001,2026-04-01_12h15.42.283,exp_sofc,,2025.2.3,59.921861892099244,2026-04-01 12h15.43.197031 +0200,
,96,0,96,,,,,,,,,,,,,,,,,,,,,,None,,,None,,,,,,,,,,,96,0,96,0,1481.4686168,,,,,,,,,,,,,,,,,,,,,,,,,,,,,,,,,,,,,,,,,,,,,,,clips/clip_wurst_06_sub_2.mp4,audios/clip_wurst_06_sub_2.mp3,audiovisual,1481.4649041,1481.853034,1482.0534047,1482.0534047,1482.0531713666667,1493.3453965,1493.3453965,1493.1373289,"[2.6243924999998853, 8.269007999999985]",,1493.2281267,,,,1493.2281634,None,,,1493.2281972,1493.228215,None,,,,,,,,,,325,001,2026-04-01_12h15.42.283,exp_sofc,,2025.2.3,59.921861892099244,2026-04-01 12h15.43.197031 +0200,
,97,0,97,,,,,,,,,,,,,,,,,,,,,,4,3.595269600000165,None,None,,,,,,,,,,,97,0,97,0,1493.3453965,,,,,,,,,,,,,,,,,,,,,,,,,,,,,,,,,,,,,,,,,,,,,,,clips/clip_wurst_14_sub_1.mp4,audios/clip_wurst_14_sub_1.mp3,audiovisual,1493.3420777,1493.7308356,1493.9307532,1493.9307532,1493.9303305666667,1503.9626504,1504.0578517,1503.9628328,[9.903477800000019],4,1504.0541673,1504.0578517,1504.0578517,1504.0578517,1507.6602257,4,3.595269600000165,None,1507.6602733,1507.6602917,None,,,,,,,,,,325,001,2026-04-01_12h15.42.283,exp_sofc,,2025.2.3,59.921861892099244,2026-04-01 12h15.43.197031 +0200,
,98,0,98,,,,,,,,,,,,,,,,,,,,,,1,9.603967100000318,None,None,,,,,,,,,,,98,0,98,0,1507.7739912,,,,,,,,,,,,,,,,,,,,,,,,,,,,,,,,,,,,,,,,,,,,,,,clips/clip_wurst_05_nosub_0.mp4,audios/clip_wurst_05_nosub_0.mp3,audiovisual,1507.769606,1508.1754008,1508.3756381,1508.3756381,1508.3755226666667,1517.1786198,1517.1786198,1517.0891399,[],1,1517.1748874,1517.1786198,1517.1786198,1517.1786198,1526.795092,1,9.603967100000318,None,1526.7951565,1526.7951866,None,,,,,,,,,,325,001,2026-04-01_12h15.42.283,exp_sofc,,2025.2.3,59.921861892099244,2026-04-01 12h15.43.197031 +0200,
,99,0,99,,,,,,,,,,,,,,,,,,,,,,None,,,None,,,,,,,,,,,99,0,99,0,1526.9059881,,,,,,,,,,,,,,,,,,,,,,,,,,,,,,,,,,,,,,,,,,,,,,,clips/clip_lied_03_sub_1.mp4,audios/silence.mp3,visual,1526.9009933,1527.3065586999999,1527.5067929999998,1527.5067929999998,1527.5066094666668,1528.7420788000002,1538.2415082999999,1538.0236346,[4.62412329999961],,1538.1151078,,,,1538.1151412000002,None,,,1538.1151698,1538.1151846,None,,,,,,,,,,325,001,2026-04-01_12h15.42.283,exp_sofc,,2025.2.3,59.921861892099244,2026-04-01 12h15.43.197031 +0200,
,100,0,100,,,,,,,,,,,,,,,,,,,,,,None,,,None,,,,,,,,,,,100,0,100,0,1538.2415082999999,,,,,,,,,,,,,,,,,,,,,,,,,,,,,,,,,,,,,,,,,,,,,,,clips/clip_herz_11_nosub_0.mp4,audios/clip_herz_11_nosub_0.mp3,audiovisual,1538.2376793,1538.6248905999998,1538.8245802,1538.8245802,1538.8242410666667,,1548.3025082000001,1548.1259650999998,[4.873237900000277],,1548.2037201,,,,1548.2037606000001,None,,,1548.2037960999999,1548.2038139,None,,,,,,,,,,325,001,2026-04-01_12h15.42.283,exp_sofc,,2025.2.3,59.921861892099244,2026-04-01 12h15.43.197031 +0200,
,101,0,101,,,,,,,,,,,,,,,,,,,,,,1,4.517035100000157,None,None,,,,,,,,,,,101,0,101,0,1548.3025082000001,,,,,,,,,,,,,,,,,,,,,,,,,,,,,,,,,,,,,,,,,,,,,,,clips/clip_weißt_11_sub_0.mp4,audios/silence.mp3,visual,1548.2995225000002,1548.7068001,1548.9070749,1548.9070749,1548.9067630666668,1550.1587100999998,1559.0435799,1558.9391705,[1.3053107999999156],1,1559.0398561,1559.0435799,1559.0435799,1559.0435799,1563.5718361000002,1,4.517035100000157,None,1563.5718899,1563.5719155999998,None,,,,,,,,,,325,001,2026-04-01_12h15.42.283,exp_sofc,,2025.2.3,59.921861892099244,2026-04-01 12h15.43.197031 +0200,
,102,0,102,,,,,,,,,,,,,,,,,,,,,,None,,,None,,,,,,,,,,,102,0,102,0,1563.7188807,,,,,,,,,,,,,,,,,,,,,,,,,,,,,,,,,,,,,,,,,,,,,,,clips/clip_holo_07_sub_0.mp4,audios/clip_holo_07_sub_0.mp3,audiovisual,1563.7144466000002,1564.0801936999999,1564.2807569,1564.2807569,1564.2804841666666,,1573.8956676,1573.6802086,[],,1573.7830431999998,,,,1573.7830780000002,None,,,1573.7831058999998,1573.7831219000002,None,,,,,,,,,,325,001,2026-04-01_12h15.42.283,exp_sofc,,2025.2.3,59.921861892099244,2026-04-01 12h15.43.197031 +0200,
,103,0,103,,,,,,,,,,,,,,,,,,,,,,None,,,None,,,,,,,,,,,103,0,103,0,1573.8956676,,,,,,,,,,,,,,,,,,,,,,,,,,,,,,,,,,,,,,,,,,,,,,,clips/clip_claude_14_sub_0.mp4,audios/silence.mp3,visual,1573.8911645,1574.2962464,1574.4969021,1574.4969021,1574.4964250666667,1575.7486188999999,1585.7681277,1585.5810379000002,"[3.484140899999602, 8.91462509999974]",,1585.6719348,,,,1585.6719692,None,,,1585.6720023,1585.6720217999998,None,,,,,,,,,,325,001,2026-04-01_12h15.42.283,exp_sofc,,2025.2.3,59.921861892099244,2026-04-01 12h15.43.197031 +0200,
,104,0,104,,,,,,,,,,,,,,,,,,,,,,None,,,None,,,,,,,,,,,104,0,104,0,1585.7681277,,,,,,,,,,,,,,,,,,,,,,,,,,,,,,,,,,,,,,,,,,,,,,,clips/clip_claude_22_nosub_2.mp4,audios/silence.mp3,visual,1585.7640083,1586.1865562,1586.3871169000001,1586.3871169000001,1586.3871019666667,1587.6381878,1597.3348561999999,1597.137429,[8.064193900000191],,1597.2281473,,,,1597.2281961,None,,,1597.2282314000001,1597.2282487,None,,,,,,,,,,325,001,2026-04-01_12h15.42.283,exp_sofc,,2025.2.3,59.921861892099244,2026-04-01 12h15.43.197031 +0200,
,105,0,105,,,,,,,,,,,,,,,,,,,,,,None,,,None,,,,,,,,,,,105,0,105,0,1597.3348561999999,,,,,,,,,,,,,,,,,,,,,,,,,,,,,,,,,,,,,,,,,,,,,,,clips/clip_weißt_23_sub_1.mp4,audios/silence.mp3,visual,1597.3295125000002,1597.7296012,1597.9294069999999,1597.9294069999999,1597.9290857666665,1599.1813604000001,1609.5412769000002,1609.3471367999998,[8.380189800000153],,1609.4398674000001,,,,1609.4399003,None,,,1609.4399340000002,1609.4399501999999,None,,,,,,,,,,325,001,2026-04-01_12h15.42.283,exp_sofc,,2025.2.3,59.921861892099244,2026-04-01 12h15.43.197031 +0200,
,106,0,106,,,,,,,,,,,,,,,,,,,,,,None,,,None,,,,,,,,,,,106,0,106,0,1609.5412769000002,,,,,,,,,,,,,,,,,,,,,,,,,,,,,,,,,,,,,,,,,,,,,,,clips/clip_lied_04_sub_0.mp4,audios/silence.mp3,visual,1609.5358889000001,1609.9395475,1610.1406390999998,1610.1406390999998,1610.1396078666667,1611.3917063000001,1621.3255017,1621.1243077000001,[],,1621.2222935000002,,,,1621.2223289,None,,,1621.2223763,1621.2223950999999,None,,,,,,,,,,325,001,2026-04-01_12h15.42.283,exp_sofc,,2025.2.3,59.921861892099244,2026-04-01 12h15.43.197031 +0200,
,107,0,107,,,,,,,,,,,,,,,,,,,,,,None,,,None,,,,,,,,,,,107,0,107,0,1621.3255017,,,,,,,,,,,,,,,,,,,,,,,,,,,,,,,,,,,,,,,,,,,,,,,clips/clip_wurst_07_sub_0.mp4,audios/silence.mp3,visual,1621.3209049,1621.7343712999998,1621.9336727000002,1621.9336727000002,1621.9336503666668,1623.185913,1632.1726431,1631.9660769999998,[],,1632.0536515000001,,,,1632.0537628,None,,,1632.0538156,1632.053843,None,,,,,,,,,,325,001,2026-04-01_12h15.42.283,exp_sofc,,2025.2.3,59.921861892099244,2026-04-01 12h15.43.197031 +0200,
,108,0,108,,,,,,,,,,,,,,,,,,,,,,None,,,None,,,,,,,,,,,108,0,108,0,1632.1726431,,,,,,,,,,,,,,,,,,,,,,,,,,,,,,,,,,,,,,,,,,,,,,,clips/clip_claude_29_sub_0.mp4,audios/clip_claude_29_sub_0.mp3,audiovisual,1632.1685119,1632.5584069,1632.7584141,1632.7584141,1632.7581529666668,1642.7915808,1643.0156946,1642.7917415,[],,1642.894117,,,,1642.8941619999998,None,,,1642.8942037999998,1642.8942264,None,,,,,,,,,,325,001,2026-04-01_12h15.42.283,exp_sofc,,2025.2.3,59.921861892099244,2026-04-01 12h15.43.197031 +0200,
,109,0,109,,,,,,,,,,,,,,,,,,,,,,None,,,None,,,,,,,,,,,109,0,109,0,1643.0156946,,,,,,,,,,,,,,,,,,,,,,,,,,,,,,,,,,,,,,,,,,,,,,,clips/clip_holo_03_nosub_1.mp4,audios/clip_holo_03_nosub_1.mp3,audiovisual,1643.0120767,1643.4081663999998,1643.6090754,1643.6090754,1643.6089501666665,1653.1418732,1653.3372787,1653.1420904,[7.423738800000137],,1653.2343229,,,,1653.234362,None,,,1653.2343954,1653.2344122000002,None,,,,,,,,,,325,001,2026-04-01_12h15.42.283,exp_sofc,,2025.2.3,59.921861892099244,2026-04-01 12h15.43.197031 +0200,
,110,0,110,,,,,,,,,,,,,,,,,,,,,,None,,,None,,,,,,,,,,,110,0,110,0,1653.3372787,,,,,,,,,,,,,,,,,,,,,,,,,,,,,,,,,,,,,,,,,,,,,,,clips/clip_lied_21_nosub_2.mp4,audios/silence.mp3,visual,1653.3319413000002,1653.7496051,1653.9500199000001,1653.9500199000001,1653.9497157666665,1655.2028174,1665.6789990999998,1665.4680953999998,"[4.956725700000334, 10.462701899999956]",,1665.5635811,,,,1665.5636723,None,,,1665.5637247000002,1665.5637583,None,,,,,,,,,,325,001,2026-04-01_12h15.42.283,exp_sofc,,2025.2.3,59.921861892099244,2026-04-01 12h15.43.197031 +0200,
,111,0,111,,,,,,,,,,,,,,,,,,,,,,None,,,None,,,,,,,,,,,111,0,111,0,1665.6789990999998,,,,,,,,,,,,,,,,,,,,,,,,,,,,,,,,,,,,,,,,,,,,,,,clips/clip_hund_34_nosub_1.mp4,audios/clip_hund_34_nosub_1.mp3,audiovisual,1665.6755151,1666.0632790000002,1666.2642779999999,1666.2642779999999,1666.2637911666666,1676.6799155,1676.8967989999999,1676.6800458,[],,1676.7726790999998,,,,1676.7727114000002,None,,,1676.7727477,1676.7727702999998,None,,,,,,,,,,325,001,2026-04-01_12h15.42.283,exp_sofc,,2025.2.3,59.921861892099244,2026-04-01 12h15.43.197031 +0200,
,112,0,112,,,,,,,,,,,,,,,,,,,,,,4,4.35317699999996,None,None,,,,,,,,,,,112,0,112,0,1676.8967989999999,,,,,,,,,,,,,,,,,,,,,,,,,,,,,,,,,,,,,,,,,,,,,,,clips/clip_hund_09_sub_2.mp4,audios/clip_hund_09_sub_2.mp3,audiovisual,1676.8932336,1677.2807544,1677.4817756,1677.4817756,1677.4813033666665,,1689.1574408,1689.0328670000001,"[7.945208500000263, 10.483245899999929]",4,1689.1538460999998,1689.1574408,1689.1574408,1689.1574408,1693.5235779000002,4,4.35317699999996,None,1693.5236406000001,1693.5236653999998,None,,,,,,,,,,325,001,2026-04-01_12h15.42.283,exp_sofc,,2025.2.3,59.921861892099244,2026-04-01 12h15.43.197031 +0200,
,113,0,113,,,,,,,,,,,,,,,,,,,,,,2,3.712271200000032,None,None,,,,,,,,,,,113,0,113,0,1693.6487599,,,,,,,,,,,,,,,,,,,,,,,,,,,,,,,,,,,,,,,,,,,,,,,clips/clip_hund_19_nosub_0.mp4,audios/clip_hund_19_nosub_0.mp3,audiovisual,1693.6449455,1694.0235211000002,1694.2239861,1694.2239861,1694.2237859666666,1705.6903875,1705.6903875,1705.5918241000002,[],2,1705.6868333,1705.6903875,1705.6903875,1705.6903875,1709.4063637000002,2,3.712271200000032,None,1709.4064111999999,1709.4064297000002,None,,,,,,,,,,325,001,2026-04-01_12h15.42.283,exp_sofc,,2025.2.3,59.921861892099244,2026-04-01 12h15.43.197031 +0200,
,114,0,114,,,,,,,,,,,,,,,,,,,,,,None,,,None,,,,,,,,,,,114,0,114,0,1709.5361320999998,,,,,,,,,,,,,,,,,,,,,,,,,,,,,,,,,,,,,,,,,,,,,,,clips/clip_wurst_24_sub_1.mp4,audios/clip_wurst_24_sub_1.mp3,audiovisual,1709.5321554999998,1709.9066844000001,1710.1073165999999,1710.1073165999999,1710.1068472666666,1721.4244305,1721.6343998,1721.4246031,[],,1721.5079862999999,,,,1721.5080216,None,,,1721.5080524000002,1721.5080667,None,,,,,,,,,,325,001,2026-04-01_12h15.42.283,exp_sofc,,2025.2.3,59.921861892099244,2026-04-01 12h15.43.197031 +0200,
,115,0,115,,,,,,,,,,,,,,,,,,,,,,None,,,None,,,,,,,,,,,115,0,115,0,1721.6343998,,,,,,,,,,,,,,,,,,,,,,,,,,,,,,,,,,,,,,,,,,,,,,,clips/clip_hund_21_nosub_1.mp4,audios/clip_hund_21_nosub_1.mp3,audiovisual,1721.6307633,1722.0185632,1722.2192723,1722.2192723,1722.2189079666668,1732.2519467999998,1732.4706046,1732.2521124000002,[6.802948600000036],,1732.3434284000002,,,,1732.3434740999999,None,,,1732.343514,1732.3435324,None,,,,,,,,,,325,001,2026-04-01_12h15.42.283,exp_sofc,,2025.2.3,59.921861892099244,2026-04-01 12h15.43.197031 +0200,
,116,0,116,,,,,,,,,,,,,,,,,,,,,,4,16.790472200000295,None,None,,,,,,,,,,,116,0,116,0,1732.4706046,,,,,,,,,,,,,,,,,,,,,,,,,,,,,,,,,,,,,,,,,,,,,,,clips/clip_hund_20_nosub_0.mp4,audios/clip_hund_20_nosub_0.mp3,audiovisual,1732.4674229999998,1732.8527190000002,1733.0525822000002,1733.0525822000002,1733.0525846666665,1744.6860665000002,1744.6860665000002,1744.5717938999999,[],4,1744.6823806999998,1744.6860665000002,1744.6860665000002,1744.6860665000002,1761.4800624000002,4,16.790472200000295,None,1761.4801097000002,1761.480128,None,,,,,,,,,,325,001,2026-04-01_12h15.42.283,exp_sofc,,2025.2.3,59.921861892099244,2026-04-01 12h15.43.197031 +0200,
,117,0,117,,,,,,,,,,,,,,,,,,,,,,None,,,None,,,,,,,,,,,117,0,117,0,1761.5813062,,,,,,,,,,,,,,,,,,,,,,,,,,,,,,,,,,,,,,,,,,,,,,,clips/clip_lied_19_nosub_1.mp4,audios/silence.mp3,visual,1761.5762496,1761.9886857,1762.189009,1762.189009,1762.1887834666668,1763.4408145,1773.0708668,1772.8903856999998,[5.0480570999998235],,1772.9795620000002,,,,1772.9795947999999,None,,,1772.9796245,1772.9796399,None,,,,,,,,,,325,001,2026-04-01_12h15.42.283,exp_sofc,,2025.2.3,59.921861892099244,2026-04-01 12h15.43.197031 +0200,
,118,0,118,,,,,,,,,,,,,,,,,,,,,,None,,,None,,,,,,,,,,,118,0,118,0,1773.0708668,,,,,,,,,,,,,,,,,,,,,,,,,,,,,,,,,,,,,,,,,,,,,,,clips/clip_weißt_20_nosub_1.mp4,audios/silence.mp3,visual,1773.0655330000002,1773.4903977000001,1773.6905058,1773.6905058,1773.6902411666665,1774.9423921,1783.753081,1783.5229498,[7.878520599999774],,1783.6308206,,,,1783.6308582,None,,,1783.6309313,1783.6309654,None,,,,,,,,,,325,001,2026-04-01_12h15.42.283,exp_sofc,,2025.2.3,59.921861892099244,2026-04-01 12h15.43.197031 +0200,
,119,0,119,,,,,,,,,,,,,,,,,,,,,,None,,,None,,,,,,,,,,,119,0,119,0,1783.753081,,,,,,,,,,,,,,,,,,,,,,,,,,,,,,,,,,,,,,,,,,,,,,,clips/clip_weißt_19_nosub_1.mp4,audios/clip_weißt_19_nosub_1.mp3,audiovisual,1783.7497415,1784.1399195000001,1784.3406369000002,1784.3406369000002,1784.3401116666669,1794.3726679,1794.4720576000002,1794.3728426999999,[],,1794.4656091999998,,,,1794.4656837999999,None,,,1794.4657266000002,1914.4678418,None,1794.4720576000002,1794.4720576000002,1794.4720576000002,,,1914.5769472,1914.5769472,,,325,001,2026-04-01_12h15.42.283,exp_sofc,,2025.2.3,59.921861892099244,2026-04-01 12h15.43.197031 +0200,
,120,0,120,,,,,,,,,,,,,,,,,,,,,,2,8.580850900000314,None,None,,,,,,,,,,,120,0,120,0,1914.5769472,,,,,,,,,,,,,,,,,,,,,,,,,,,,,,,,,,,,,,,,,,,,,,,clips/clip_claude_01_nosub_2.mp4,audios/silence.mp3,visual,1914.5714056,1914.9767332,1915.1771019999999,1915.1771019999999,1915.1770108666665,1916.4302383000002,1926.2533838000002,1926.1447357,"[6.658957399999963, 8.597108899999967]",2,1926.2495700000002,1926.2533838000002,1926.2533838000002,1926.2533838000002,1934.8350727,2,8.580850900000314,None,1934.8351347,1934.835162,None,,,,,,,,,,325,001,2026-04-01_12h15.42.283,exp_sofc,,2025.2.3,59.921861892099244,2026-04-01 12h15.43.197031 +0200,
,121,0,121,,,,,,,,,,,,,,,,,,,,,,None,,,None,,,,,,,,,,,121,0,121,0,1934.9619254000002,,,,,,,,,,,,,,,,,,,,,,,,,,,,,,,,,,,,,,,,,,,,,,,clips/clip_wurst_13_nosub_0.mp4,audios/clip_wurst_13_nosub_0.mp3,audiovisual,1934.9576371,1935.335038,1935.5366101000002,1935.5366101000002,1935.5360749666665,1945.1675659999999,1945.3656797,1945.1677384000002,[],,1945.260297,,,,1945.2603287,None,,,1945.2603562000002,1945.2603714,None,,,,,,,,,,325,001,2026-04-01_12h15.42.283,exp_sofc,,2025.2.3,59.921861892099244,2026-04-01 12h15.43.197031 +0200,
,122,0,122,,,,,,,,,,,,,,,,,,,,,,None,,,None,,,,,,,,,,,122,0,122,0,1945.3656797,,,,,,,,,,,,,,,,,,,,,,,,,,,,,,,,,,,,,,,,,,,,,,,clips/clip_holo_27_nosub_1.mp4,audios/silence.mp3,visual,1945.3607994000001,1945.7595167000002,1945.9603335999998,1945.9603335999998,1945.9602465666667,1947.2117645,1956.1548460000001,1955.9591681999998,[5.299743200000194],,1956.0388454000001,,,,1956.0388888999998,None,,,1956.0389223999998,1956.0389401,None,,,,,,,,,,325,001,2026-04-01_12h15.42.283,exp_sofc,,2025.2.3,59.921861892099244,2026-04-01 12h15.43.197031 +0200,
,123,0,123,,,,,,,,,,,,,,,,,,,,,,None,,,None,,,,,,,,,,,123,0,123,0,1956.1548460000001,,,,,,,,,,,,,,,,,,,,,,,,,,,,,,,,,,,,,,,,,,,,,,,clips/clip_holo_15_nosub_0.mp4,audios/clip_holo_15_nosub_0.mp3,audiovisual,1956.1511497,1956.5513856999999,1956.7523899,1956.7523899,1956.7516630666664,,1966.1626695000002,1965.9509839,[6.179505600000084],,1966.0362449000002,,,,1966.0362966999999,None,,,1966.0363369999998,1966.036362,None,,,,,,,,,,325,001,2026-04-01_12h15.42.283,exp_sofc,,2025.2.3,59.921861892099244,2026-04-01 12h15.43.197031 +0200,
,124,0,124,,,,,,,,,,,,,,,,,,,,,,None,,,None,,,,,,,,,,,124,0,124,0,1966.1626695000002,,,,,,,,,,,,,,,,,,,,,,,,,,,,,,,,,,,,,,,,,,,,,,,clips/clip_wurst_28_sub_1.mp4,audios/clip_wurst_28_sub_1.mp3,audiovisual,1966.1589324,1966.5467151999999,1966.7481943999999,1966.7481943999999,1966.7476570666668,1977.0803250000001,1977.2520351,1977.0804864999998,[],,1977.1472970000002,,,,1977.1473475,None,,,1977.1473826,1977.1473987000002,None,,,,,,,,,,325,001,2026-04-01_12h15.42.283,exp_sofc,,2025.2.3,59.921861892099244,2026-04-01 12h15.43.197031 +0200,
,125,0,125,,,,,,,,,,,,,,,,,,,,,,1,27.801044900000306,None,None,,,,,,,,,,,125,0,125,0,1977.2520351,,,,,,,,,,,,,,,,,,,,,,,,,,,,,,,,,,,,,,,,,,,,,,,clips/clip_wurst_35_sub_0.mp4,audios/silence.mp3,visual,1977.2467233999998,1977.6474117999999,1977.8497193,1977.8497193,1977.8482778666666,1979.0997372999998,1987.2447028,1987.146215,[],1,1987.2411436999998,1987.2447028,1987.2447028,1987.2447028,2015.0474737000002,1,27.801044900000306,None,2015.0475227,2015.0475411,None,,,,,,,,,,325,001,2026-04-01_12h15.42.283,exp_sofc,,2025.2.3,59.921861892099244,2026-04-01 12h15.43.197031 +0200,
,126,0,126,,,,,,,,,,,,,,,,,,,,,,3,11.951921500000026,None,None,,,,,,,,,,,126,0,126,0,2015.1723149000002,,,,,,,,,,,,,,,,,,,,,,,,,,,,,,,,,,,,,,,,,,,,,,,clips/clip_dampf_05_nosub_2.mp4,audios/clip_dampf_05_nosub_2.mp3,audiovisual,2015.1685203,2015.5481032999999,2015.7485361000001,2015.7485361000001,2015.7483290666664,2024.5578419,2024.5578419,2024.4543041999998,[3.6438990000001468],2,2024.554469,2024.5578419,2024.5578419,2024.5578419,2036.5115177999999,3,11.951921500000026,None,2036.5115807,2036.5116083,None,,,,,,,,,,325,001,2026-04-01_12h15.42.283,exp_sofc,,2025.2.3,59.921861892099244,2026-04-01 12h15.43.197031 +0200,
,127,0,127,,,,,,,,,,,,,,,,,,,,,,None,,,None,,,,,,,,,,,127,0,127,0,2036.6104763,,,,,,,,,,,,,,,,,,,,,,,,,,,,,,,,,,,,,,,,,,,,,,,clips/clip_hund_23_sub_1.mp4,audios/silence.mp3,visual,2036.6050994999998,2037.0197446999998,2037.2216549000002,2037.2216549000002,2037.2210986666664,2038.4721464000002,2048.3529809,2048.1381398000003,[],,2048.2233838,,,,2048.2234175000003,None,,,2048.2234467,2048.2234619,None,,,,,,,,,,325,001,2026-04-01_12h15.42.283,exp_sofc,,2025.2.3,59.921861892099244,2026-04-01 12h15.43.197031 +0200,
,128,0,128,,,,,,,,,,,,,,,,,,,,,,None,,,None,,,,,,,,,,,128,0,128,0,2048.3529809,,,,,,,,,,,,,,,,,,,,,,,,,,,,,,,,,,,,,,,,,,,,,,,clips/clip_weißt_07_sub_1.mp4,audios/clip_weißt_07_sub_1.mp3,audiovisual,2048.3492941000004,2048.7371983000003,2048.938018,2048.938018,2048.9379317666667,2058.6693838,2058.8696041000003,2058.6695831999996,[4.441104699999869],,2058.7522115,,,,2058.7522503,None,,,2058.752302,2058.7523505999998,None,,,,,,,,,,325,001,2026-04-01_12h15.42.283,exp_sofc,,2025.2.3,59.921861892099244,2026-04-01 12h15.43.197031 +0200,
,129,0,129,,,,,,,,,,,,,,,,,,,,,,None,,,None,,,,,,,,,,,129,0,129,0,2058.8696041000003,,,,,,,,,,,,,,,,,,,,,,,,,,,,,,,,,,,,,,,,,,,,,,,clips/clip_hund_22_sub_1.mp4,audios/clip_hund_22_sub_1.mp3,audiovisual,2058.8657236999998,2059.2626521,2059.4627256000003,2059.4627256000003,2059.462778266667,2069.4777242,2069.6733071999997,2069.4779021000004,[8.544115799999872],,2069.5701694,,,,2069.5702125999996,None,,,2069.5702443,2069.5702614,None,,,,,,,,,,325,001,2026-04-01_12h15.42.283,exp_sofc,,2025.2.3,59.921861892099244,2026-04-01 12h15.43.197031 +0200,
,130,0,130,,,,,,,,,,,,,,,,,,,,,,None,,,None,,,,,,,,,,,130,0,130,0,2069.6733071999997,,,,,,,,,,,,,,,,,,,,,,,,,,,,,,,,,,,,,,,,,,,,,,,clips/clip_herz_16_nosub_0.mp4,audios/silence.mp3,visual,2069.6677366000004,2070.0704029,2070.2711101000004,2070.2711101000004,2070.2711625666666,2071.5227992,2079.493593,2079.3023114,[],,2079.3867452000004,,,,2079.3868069,None,,,2079.3868519,2079.3868731000002,None,,,,,,,,,,325,001,2026-04-01_12h15.42.283,exp_sofc,,2025.2.3,59.921861892099244,2026-04-01 12h15.43.197031 +0200,
,131,0,131,,,,,,,,,,,,,,,,,,,,,,None,,,None,,,,,,,,,,,131,0,131,0,2079.493593,,,,,,,,,,,,,,,,,,,,,,,,,,,,,,,,,,,,,,,,,,,,,,,clips/clip_claude_26_sub_0.mp4,audios/silence.mp3,visual,2079.4892858000003,2079.8941934000004,2080.0949558,2080.0949558,2080.094897766667,2081.3465312999997,2091.2138695000003,2091.0119255,[4.160533700000087],,2091.1134754000004,,,,2091.1135132,None,,,2091.1135652000003,2091.1136049999996,None,,,,,,,,,,325,001,2026-04-01_12h15.42.283,exp_sofc,,2025.2.3,59.921861892099244,2026-04-01 12h15.43.197031 +0200,
,132,0,132,,,,,,,,,,,,,,,,,,,,,,None,,,None,,,,,,,,,,,132,0,132,0,2091.2138695000003,,,,,,,,,,,,,,,,,,,,,,,,,,,,,,,,,,,,,,,,,,,,,,,clips/clip_wurst_11_sub_0.mp4,audios/silence.mp3,visual,2091.2112719999996,2091.6215123,2091.8223850000004,2091.8223850000004,2091.8219502666666,2093.0729746999996,2104.0359415000003,2103.8409492,[],,2103.9512596000004,,,,2103.9513476,None,,,2103.9514029,2103.951432,None,,,,,,,,,,325,001,2026-04-01_12h15.42.283,exp_sofc,,2025.2.3,59.921861892099244,2026-04-01 12h15.43.197031 +0200,
,133,0,133,,,,,,,,,,,,,,,,,,,,,,None,,,None,,,,,,,,,,,133,0,133,0,2104.0359415000003,,,,,,,,,,,,,,,,,,,,,,,,,,,,,,,,,,,,,,,,,,,,,,,clips/clip_lied_05_nosub_0.mp4,audios/silence.mp3,visual,2104.0313883,2104.4663208,2104.6660585,2104.6660585,2104.6664269666667,2105.9179307000004,2114.251023,2114.0646924000002,[],,2114.1556941999997,,,,2114.1557291999998,None,,,2114.1557617,2114.1557781,None,,,,,,,,,,325,001,2026-04-01_12h15.42.283,exp_sofc,,2025.2.3,59.921861892099244,2026-04-01 12h15.43.197031 +0200,
,134,0,134,,,,,,,,,,,,,,,,,,,,,,None,,,None,,,,,,,,,,,134,0,134,0,2114.251023,,,,,,,,,,,,,,,,,,,,,,,,,,,,,,,,,,,,,,,,,,,,,,,clips/clip_claude_07_nosub_0.mp4,audios/silence.mp3,visual,2114.247381,2114.6698327000004,2114.8706571000002,2114.8706571000002,2114.869846066667,2116.1212686,2125.1091503,2124.9026921000004,[],,2124.9991317000004,,,,2124.9991999000003,None,,,2124.9992469999997,2124.9992687000004,None,,,,,,,,,,325,001,2026-04-01_12h15.42.283,exp_sofc,,2025.2.3,59.921861892099244,2026-04-01 12h15.43.197031 +0200,
,135,0,135,,,,,,,,,,,,,,,,,,,,,,None,,,None,,,,,,,,,,,135,0,135,0,2125.1091503,,,,,,,,,,,,,,,,,,,,,,,,,,,,,,,,,,,,,,,,,,,,,,,clips/clip_wurst_17_nosub_0.mp4,audios/clip_wurst_17_nosub_0.mp3,audiovisual,2125.1058949999997,2125.5109003,2125.7117404,2125.7117404,2125.7116285666666,2133.7405756,2133.9383127,2133.7407421999997,[],,2133.8293789,,,,2133.8294367,None,,,2133.8294816,2133.8295015000003,None,,,,,,,,,,325,001,2026-04-01_12h15.42.283,exp_sofc,,2025.2.3,59.921861892099244,2026-04-01 12h15.43.197031 +0200,
,136,0,136,,,,,,,,,,,,,,,,,,,,,,3,9.704298699999981,None,None,,,,,,,,,,,136,0,136,0,2133.9383127,,,,,,,,,,,,,,,,,,,,,,,,,,,,,,,,,,,,,,,,,,,,,,,clips/clip_weißt_30_nosub_2.mp4,audios/silence.mp3,visual,2133.9341655,2134.3339207999998,2134.5337074999998,2134.5337074999998,2134.533667666667,2135.7851812,2146.6459769000003,2146.5519160000003,"[3.0175239000000147, 11.848986400000285]",1,2146.6423536,2146.6459769000003,2146.6459769000003,2146.6459769000003,2156.3592857000003,3,9.704298699999981,None,2156.3593352,2156.3593542,None,,,,,,,,,,325,001,2026-04-01_12h15.42.283,exp_sofc,,2025.2.3,59.921861892099244,2026-04-01 12h15.43.197031 +0200,
,137,0,137,,,,,,,,,,,,,,,,,,,,,,None,,,None,,,,,,,,,,,137,0,137,0,2156.4807269000003,,,,,,,,,,,,,,,,,,,,,,,,,,,,,,,,,,,,,,,,,,,,,,,clips/clip_claude_03_sub_1.mp4,audios/clip_claude_03_sub_1.mp3,audiovisual,2156.4768762000003,2156.8601844000004,2157.0599556999996,2157.0599556999996,2157.0599467666666,2168.5776114,2168.8023756000002,2168.5777589,[5.253354699999818],,2168.6746119,,,,2168.6746470999997,None,,,2168.674677,2168.6746918,None,,,,,,,,,,325,001,2026-04-01_12h15.42.283,exp_sofc,,2025.2.3,59.921861892099244,2026-04-01 12h15.43.197031 +0200,
,138,0,138,,,,,,,,,,,,,,,,,,,,,,None,,,None,,,,,,,,,,,138,0,138,0,2168.8023756000002,,,,,,,,,,,,,,,,,,,,,,,,,,,,,,,,,,,,,,,,,,,,,,,clips/clip_hund_17_sub_1.mp4,audios/clip_hund_17_sub_1.mp3,audiovisual,2168.7986994000003,2169.1794959999997,2169.3793507,2169.3793507,2169.3794409666666,,2181.8603851999997,2181.6829022,[10.21270100000038],,2181.7663267,,,,2181.7664387000004,None,,,2181.7664836000004,2181.7665109,None,,,,,,,,,,325,001,2026-04-01_12h15.42.283,exp_sofc,,2025.2.3,59.921861892099244,2026-04-01 12h15.43.197031 +0200,
,139,0,139,,,,,,,,,,,,,,,,,,,,,,None,,,None,,,,,,,,,,,139,0,139,0,2181.8603851999997,,,,,,,,,,,,,,,,,,,,,,,,,,,,,,,,,,,,,,,,,,,,,,,clips/clip_lied_11_nosub_1.mp4,audios/silence.mp3,visual,2181.8552369999998,2182.2741544,2182.4752514,2182.4752514,2182.4751679666665,2183.7265116999997,2193.7836131000004,2193.5761596,[7.988038100000267],,2193.6520339,,,,2193.6520848,None,,,2193.6521452999996,2193.6521730000004,None,,,,,,,,,,325,001,2026-04-01_12h15.42.283,exp_sofc,,2025.2.3,59.921861892099244,2026-04-01 12h15.43.197031 +0200,
,140,0,140,,,,,,,,,,,,,,,,,,,,,,4,16.09731929999998,None,None,,,,,,,,,,,140,0,140,0,2193.7836131000004,,,,,,,,,,,,,,,,,,,,,,,,,,,,,,,,,,,,,,,,,,,,,,,clips/clip_wurst_15_nosub_2.mp4,audios/clip_wurst_15_nosub_2.mp3,audiovisual,2193.7797643000004,2194.1509655,2194.3523674,2194.3523674,2194.3517571666666,2203.7833277,2203.8917992999995,2203.7835016,"[5.311894699999812, 7.736637399999836]",4,2203.8879248000003,2203.8917992999995,2203.8917992999995,2203.8917992999995,2220.0009235999996,4,16.09731929999998,None,2220.0009849999997,2220.0010099,None,,,,,,,,,,325,001,2026-04-01_12h15.42.283,exp_sofc,,2025.2.3,59.921861892099244,2026-04-01 12h15.43.197031 +0200,
,141,0,141,,,,,,,,,,,,,,,,,,,,,,None,,,None,,,,,,,,,,,141,0,141,0,2220.1202481,,,,,,,,,,,,,,,,,,,,,,,,,,,,,,,,,,,,,,,,,,,,,,,clips/clip_wurst_36_nosub_0.mp4,audios/clip_wurst_36_nosub_0.mp3,audiovisual,2220.1159371000003,2220.5017465,2220.7022304,2220.7022304,2220.701768766667,2230.7460746999996,2230.7460746999996,2230.5673823999996,[],,2230.6580806,,,,2230.6581146,None,,,2230.6581447999997,2230.6581613,None,,,,,,,,,,325,001,2026-04-01_12h15.42.283,exp_sofc,,2025.2.3,59.921861892099244,2026-04-01 12h15.43.197031 +0200,
,142,0,142,,,,,,,,,,,,,,,,,,,,,,3,8.765218300000015,None,None,,,,,,,,,,,142,0,142,0,2230.7460746999996,,,,,,,,,,,,,,,,,,,,,,,,,,,,,,,,,,,,,,,,,,,,,,,clips/clip_lied_10_nosub_1.mp4,audios/silence.mp3,visual,2230.7418602,2231.1687192,2231.3703837000003,2231.3703837000003,2231.368614366667,2232.6204594,2242.9858240000003,2242.8871172,[4.340980599999966],3,2242.9822320000003,2242.9858240000003,2242.9858240000003,2242.9858240000003,2251.7588905000002,3,8.765218300000015,None,2251.7589535999996,2251.7589835999997,None,,,,,,,,,,325,001,2026-04-01_12h15.42.283,exp_sofc,,2025.2.3,59.921861892099244,2026-04-01 12h15.43.197031 +0200,
,143,0,143,,,,,,,,,,,,,,,,,,,,,,None,,,None,,,,,,,,,,,143,0,143,0,2251.8850371999997,,,,,,,,,,,,,,,,,,,,,,,,,,,,,,,,,,,,,,,,,,,,,,,clips/clip_lied_06_sub_1.mp4,audios/clip_lied_06_sub_1.mp3,audiovisual,2251.8813307,2252.2593808,2252.4603841,2252.4603841,2252.460235466667,2265.0798606,2265.2771862,2265.0799890999997,[],,2265.1705773000003,,,,2265.1706093000003,None,,,2265.170637,2265.1706556,None,,,,,,,,,,325,001,2026-04-01_12h15.42.283,exp_sofc,,2025.2.3,59.921861892099244,2026-04-01 12h15.43.197031 +0200,
,144,0,144,,,,,,,,,,,,,,,,,,,,,,None,,,None,,,,,,,,,,,144,0,144,0,2265.2771862,,,,,,,,,,,,,,,,,,,,,,,,,,,,,,,,,,,,,,,,,,,,,,,clips/clip_claude_04_sub_2.mp4,audios/silence.mp3,visual,2265.2728863,2265.6718680000004,2265.8727071000003,2265.8727071000003,2265.8722304666667,2267.1242808999996,2275.1053749000002,2274.9039168,[8.447102899999663],,2274.9954532,,,,2274.9954991000004,None,,,2274.9955366000004,2274.9955530999996,None,,,,,,,,,,325,001,2026-04-01_12h15.42.283,exp_sofc,,2025.2.3,59.921861892099244,2026-04-01 12h15.43.197031 +0200,
,145,0,145,,,,,,,,,,,,,,,,,,,,,,None,,,None,,,,,,,,,,,145,0,145,0,2275.1053749000002,,,,,,,,,,,,,,,,,,,,,,,,,,,,,,,,,,,,,,,,,,,,,,,clips/clip_claude_25_sub_0.mp4,audios/silence.mp3,visual,2275.1016136999997,2275.4963059,2275.6965394,2275.6965394,2275.696161666667,2276.9486552,2286.0739581999997,2285.8954940000003,[0.5290430999998534],,2285.9803996,,,,2285.9804455000003,None,,,2285.9804867000003,2285.9805029999998,None,,,,,,,,,,325,001,2026-04-01_12h15.42.283,exp_sofc,,2025.2.3,59.921861892099244,2026-04-01 12h15.43.197031 +0200,
,146,0,146,,,,,,,,,,,,,,,,,,,,,,None,,,None,,,,,,,,,,,146,0,146,0,2286.0739581999997,,,,,,,,,,,,,,,,,,,,,,,,,,,,,,,,,,,,,,,,,,,,,,,clips/clip_herz_04_nosub_0.mp4,audios/silence.mp3,visual,2286.0695896999996,2286.4957182,2286.6968902999997,2286.6801674999997,2286.679606766667,2287.9315273,2297.8911867999996,2297.6973434,[8.61309940000001],,2297.7802001,,,,2297.7802531999996,None,,,2297.7802920000004,2297.7803145999997,None,,,,,,,,,,325,001,2026-04-01_12h15.42.283,exp_sofc,,2025.2.3,59.921861892099244,2026-04-01 12h15.43.197031 +0200,
,147,0,147,,,,,,,,,,,,,,,,,,,,,,3,5.843150699999569,None,None,,,,,,,,,,,147,0,147,0,2297.8911867999996,,,,,,,,,,,,,,,,,,,,,,,,,,,,,,,,,,,,,,,,,,,,,,,clips/clip_claude_12_nosub_0.mp4,audios/silence.mp3,visual,2297.8862393,2298.2890853999997,2298.4904497999996,2298.4904497999996,2298.490001266667,2299.7417957999996,2307.8231226,2307.7207525000003,[],3,2307.8194354999996,2307.8231226,2307.8231226,2307.8231226,2313.6717097,3,5.843150699999569,None,2313.6717710000003,2313.6717969,None,,,,,,,,,,325,001,2026-04-01_12h15.42.283,exp_sofc,,2025.2.3,59.921861892099244,2026-04-01 12h15.43.197031 +0200,
,148,0,148,,,,,,,,,,,,,,,,,,,,,,None,,,None,,,,,,,,,,,148,0,148,0,2313.7627368000003,,,,,,,,,,,,,,,,,,,,,,,,,,,,,,,,,,,,,,,,,,,,,,,clips/clip_holo_09_sub_2.mp4,audios/silence.mp3,visual,2313.7594437999996,2314.1805022999997,2314.3812998000003,2314.3812998000003,2314.380843966667,2315.6328794,2325.9791398999996,2325.7998962,[],,2325.8839056999996,,,,2325.8839373,None,,,2325.8839656,2325.8839807000004,None,,,,,,,,,,325,001,2026-04-01_12h15.42.283,exp_sofc,,2025.2.3,59.921861892099244,2026-04-01 12h15.43.197031 +0200,
,149,0,149,,,,,,,,,,,,,,,,,,,,,,None,,,None,,,,,,,,,,,149,0,149,0,2325.9791398999996,,,,,,,,,,,,,,,,,,,,,,,,,,,,,,,,,,,,,,,,,,,,,,,clips/clip_wurst_16_nosub_0.mp4,audios/silence.mp3,visual,2325.9765968,2326.3829772999998,2326.58338,2326.58338,2326.583188666667,2327.8350761,2336.8223258,2336.6157836,[],,2336.7057248,,,,2336.7057766999997,None,,,2336.7058336,2336.7058794000004,None,,,,,,,,,,325,001,2026-04-01_12h15.42.283,exp_sofc,,2025.2.3,59.921861892099244,2026-04-01 12h15.43.197031 +0200,
,150,0,150,,,,,,,,,,,,,,,,,,,,,,None,,,None,,,,,,,,,,,150,0,150,0,2336.8223258,,,,,,,,,,,,,,,,,,,,,,,,,,,,,,,,,,,,,,,,,,,,,,,clips/clip_lied_17_sub_2.mp4,audios/clip_lied_17_sub_2.mp3,audiovisual,2336.8190906,2337.2080902999996,2337.4085828999996,2337.4085828999996,2337.4082869666668,2347.4415901,2347.6246554,2347.4418127999998,"[4.297056799999609, 7.694349299999885]",,2347.5280114999996,,,,2347.5280875999997,None,,,2347.5281444,2347.5281772999997,None,,,,,,,,,,325,001,2026-04-01_12h15.42.283,exp_sofc,,2025.2.3,59.921861892099244,2026-04-01 12h15.43.197031 +0200,
,151,0,151,,,,,,,,,,,,,,,,,,,,,,None,,,None,,,,,,,,,,,151,0,151,0,2347.6246554,,,,,,,,,,,,,,,,,,,,,,,,,,,,,,,,,,,,,,,,,,,,,,,clips/clip_hund_03_nosub_1.mp4,audios/silence.mp3,visual,2347.6222900000002,2348.0261951,2348.2275632,2348.2275632,2348.227611566667,2349.4800701000004,2360.3487611,2360.1287171000004,[6.503761999999824],,2360.2264464,,,,2360.2265188,None,,,2360.2265538,2360.2265694999996,None,,,,,,,,,,325,001,2026-04-01_12h15.42.283,exp_sofc,,2025.2.3,59.921861892099244,2026-04-01 12h15.43.197031 +0200,
,152,0,152,,,,,,,,,,,,,,,,,,,,,,None,,,None,,,,,,,,,,,152,0,152,0,2360.3487611,,,,,,,,,,,,,,,,,,,,,,,,,,,,,,,,,,,,,,,,,,,,,,,clips/clip_herz_10_sub_0.mp4,audios/clip_herz_10_sub_0.mp3,audiovisual,2360.3455322,2360.7301315000004,2360.9301625999997,2360.9301625999997,2360.929602266667,2370.9630488000003,2371.1597926000004,2370.9632801,[],,2371.0569492000004,,,,2371.056993,None,,,2371.0570285000003,2371.0570530000005,None,,,,,,,,,,325,001,2026-04-01_12h15.42.283,exp_sofc,,2025.2.3,59.921861892099244,2026-04-01 12h15.43.197031 +0200,
,153,0,153,,,,,,,,,,,,,,,,,,,,,,None,,,None,,,,,,,,,,,153,0,153,0,2371.1597926000004,,,,,,,,,,,,,,,,,,,,,,,,,,,,,,,,,,,,,,,,,,,,,,,clips/clip_herz_14_nosub_0.mp4,audios/silence.mp3,visual,2371.1558598,2371.5715490000002,2371.7717489999995,2371.7717489999995,2371.771563966667,2373.0241242,2382.5014658,2382.2883899,[],,2382.3855594999995,,,,2382.3856899,None,,,2382.3857550000002,2382.3857795000004,None,,,,,,,,,,325,001,2026-04-01_12h15.42.283,exp_sofc,,2025.2.3,59.921861892099244,2026-04-01 12h15.43.197031 +0200,
,154,0,154,,,,,,,,,,,,,,,,,,,,,,None,,,None,,,,,,,,,,,154,0,154,0,2382.5014658,,,,,,,,,,,,,,,,,,,,,,,,,,,,,,,,,,,,,,,,,,,,,,,clips/clip_hund_12_sub_1.mp4,audios/silence.mp3,visual,2382.4954027000003,2382.9017292,2383.1014136000003,2383.1014136000003,2383.1009646666666,2384.3536407,2394.5278887000004,2394.3198171000004,"[2.695813000000271, 10.402430000000095]",,2394.4083170000004,,,,2394.4083704000004,None,,,2394.4084098000003,2394.4084264000003,None,,,,,,,,,,325,001,2026-04-01_12h15.42.283,exp_sofc,,2025.2.3,59.921861892099244,2026-04-01 12h15.43.197031 +0200,
,155,0,155,,,,,,,,,,,,,,,,,,,,,,None,,,None,,,,,,,,,,,155,0,155,0,2394.5278887000004,,,,,,,,,,,,,,,,,,,,,,,,,,,,,,,,,,,,,,,,,,,,,,,clips/clip_holo_08_nosub_2.mp4,audios/clip_holo_08_nosub_2.mp3,audiovisual,2394.5242792999998,2394.9122958999997,2395.1128124999996,2395.1128124999996,2395.1125401666673,2406.111884,2406.111884,2405.9150608,"[4.295349600000009, 9.209794899999906]",,2406.0115758,,,,2406.0116098999997,None,,,2406.0116402000003,2406.0116672000004,None,,,,,,,,,,325,001,2026-04-01_12h15.42.283,exp_sofc,,2025.2.3,59.921861892099244,2026-04-01 12h15.43.197031 +0200,
