instruction_text,thisN,thisTrialN,thisRepN,key_resp_instruction.keys,key_resp_instruction.rt,key_resp_instruction.duration,clip_file,clip_path,sound_path,movie,subtitles,n_cut,clip_num,first_cut,second_cut,clip_duration,attention_check_question,attention_check_correct,attention_check_distractor_1,attention_check_distractor_2,attention_check_distractor_3,prac_attention_resp.keys,prac_attention_resp.rt,prac_attention_resp.duration,exp_atttention_resp.keys,exp_pause_resp.keys,exp_atttention_resp.rt,exp_atttention_resp.duration,instruction_trials.thisRepN,instruction_trials.thisTrialN,instruction_trials.thisN,instruction_trials.thisIndex,practice_trials.thisRepN,practice_trials.thisTrialN,practice_trials.thisN,practice_trials.thisIndex,experiment_trials.thisRepN,experiment_trials.thisTrialN,experiment_trials.thisN,experiment_trials.thisIndex,thisRow.t,notes,instructions.started,text_instruction.started,key_resp_instruction.started,instructions.stopped,instruction_trials.key_resp_instruction.keys,instruction_trials.key_resp_instruction.rt,instruction_trials.key_resp_instruction.duration,informed_consent.started,slider_informed_consent.started,text_informed_consent.started,informed_consent.stopped,slider_informed_consent.response,slider_informed_consent.rt,begin_practice.started,begin_practice_text.started,begin_practice.stopped,Practice_clip_name,Practice_video_used,Practice_audio_used,Practice_modality,Practice_subtitles,Practice_attention_check,practice_clip.started,prac_fixation_cross.started,prac_clip.started,prac_sound.started,prac_feedback.started,prac_fixation_cross.stopped,prac_sound.stopped,prac_clip.stopped,practice_clip.stopped,prac_all_cut_rts,Practice_correct_key_required,practice_attention_check.started,prac_attention_resp.started,prac_question.started,prac_options.started,practice_attention_check.stopped,practice_trials.prac_attention_resp.keys,practice_trials.prac_attention_resp.rt,practice_trials.prac_attention_resp.duration,begin_experiment.started,begin_experiment_text.started,begin_experiment_text.stopped,begin_experiment.stopped,video_used,audio_used,condition_modality,experiment_clip.started,exp_fixation_cross.started,exp_fixation_cross.stopped,exp_clip.started,exp_sound.started,exp_clip.stopped,exp_sound.stopped,experiment_clip.stopped,all_cut_rts,experiment_attention_check.started,experiment_attention_check.stopped,experiment_trials.exp_atttention_resp.keys,experiment_pause.started,experiment_pause.stopped,experiment_trials.exp_pause_resp.keys,correct_key_required,exp_atttention_resp.started,exp_question.started,exp_options.started,experiment_trials.exp_atttention_resp.rt,experiment_trials.exp_atttention_resp.duration,exp_pause_text.started,exp_pause_resp.started,exp_countdown.started,exp_pause_resp.stopped,exp_countdown.stopped,end.started,text_end.started,participant,session,date,expName,expVersion,psychopyVersion,frameRate,expStart,
"Herzlich willkommen!

Vielen Dank, dass Sie an unserer Studie teilnehmen. Die Untersuchung wird insgesamt etwa 35 Minuten in Anspruch nehmen.

Bevor wir beginnen, beachten Sie bitte folgende Voraussetzungen für die Teilnahme:
• Sie sind mindestens 18 Jahre alt.
• Ihre Muttersprache ist Deutsch.

(Drücken Sie die Leertaste, um fortzufahren)",0,0,0,space,6.078241100000014,None,,,,,,,,,,,,,,,,,,,,,,,0,0,0,0,,,,,,,,,0.0747750000009546,,0.028246599998965394,0.0747750000009546,0.0747750000009546,6.187939600000391,space,6.078241100000014,None,,,,,,,,,,,,,,,,,,,,,,,,,,,,,,,,,,,,,,,,,,,,,,,,,,,,,,,,,,,,,,,,,,,,,,330,001,2026-04-01_17h02.24.331,exp_sofc,,2025.2.3,59.91170213366873,2026-04-01 17h02.26.158194 +0200,
"Ablauf der Studie

Ihnen werden in schneller Abfolge viele kurze Filmclips gezeigt.
Ihre Aufgabe ist einfach:

Drücken Sie jedes Mal die Leertaste, wenn Sie einen Filmschnitt (Cut) erkennen.

Zusätzlich werden Ihnen gelegentlich kurze Verständnisfragen zu den gezeigten Clips gestellt.

(Drücken Sie die Leertaste, um fortzufahren),",1,1,0,space,8.095842299997457,None,,,,,,,,,,,,,,,,,,,,,,,0,1,1,1,,,,,,,,,6.228665499998897,,6.188146000000415,6.228665499998897,6.228665499998897,14.32645649999904,space,8.095842299997457,None,,,,,,,,,,,,,,,,,,,,,,,,,,,,,,,,,,,,,,,,,,,,,,,,,,,,,,,,,,,,,,,,,,,,,,330,001,2026-04-01_17h02.24.331,exp_sofc,,2025.2.3,59.91170213366873,2026-04-01 17h02.26.158194 +0200,
"Freiwilligkeit Ihrer Teilnahme

Ihre Teilnahme an dieser Studie ist absolut freiwillig. Sie können das Experiment jederzeit und ohne Angabe von Gründen abbrechen, ohne dass Ihnen daraus irgendwelche Nachteile entstehen.

Sollten Sie die Studie vorzeitig beenden, werden Ihre bis dahin erhobenen Daten umgehend gelöscht und nicht gespeichert.

(Drücken Sie die Leertaste, um fortzufahren)",2,2,0,space,3.180157099999633,None,,,,,,,,,,,,,,,,,,,,,,,0,2,2,2,,,,,,,,,14.445367399999668,,14.326614500001597,14.445367399999668,14.445367399999668,17.631945400000404,space,3.180157099999633,None,,,,,,,,,,,,,,,,,,,,,,,,,,,,,,,,,,,,,,,,,,,,,,,,,,,,,,,,,,,,,,,,,,,,,,330,001,2026-04-01_17h02.24.331,exp_sofc,,2025.2.3,59.91170213366873,2026-04-01 17h02.26.158194 +0200,
"Datenschutz und Anonymität

Die Erhebung und Auswertung Ihrer Daten erfolgt am Fachbereich Psychologie der Universität Tübingen und ist vollständig anonym. Ihr Name wird zu keinem Zeitpunkt erfragt oder gespeichert. Niemand wird Ihre Daten mit Ihrer Person in Verbindung bringen können.

Die anonymisierten Experimentaldaten werden nach Abschluss der Erhebung für mindestens 10 Jahre gespeichert und zu Forschungszwecken in einer öffentlichen Datenbank zugänglich gemacht.

(Drücken Sie die Leertaste, um fortzufahren),",3,3,0,space,5.960839599996689,None,,,,,,,,,,,,,,,,,,,,,,,0,3,3,3,,,,,,,,,17.68844330000138,,17.632153599999583,17.68844330000138,17.68844330000138,23.66555789999984,space,5.960839599996689,None,,,,,,,,,,,,,,,,,,,,,,,,,,,,,,,,,,,,,,,,,,,,,,,,,,,,,,,,,,,,,,,,,,,,,,330,001,2026-04-01_17h02.24.331,exp_sofc,,2025.2.3,59.91170213366873,2026-04-01 17h02.26.158194 +0200,
"Einverständniserklärung

Bitte lesen Sie die folgende Erklärung aufmerksam durch:

Ich bestätige, dass ich über 18 Jahre alt bin und ausreichend Zeit hatte, mich für die Teilnahme zu entscheiden. Ich wurde über die Erhebung, Verarbeitung und öffentliche Zugänglichmachung meiner anonymisierten Daten angemessen informiert.
Ich bin mir bewusst, dass ich das Experiment jederzeit abbrechen kann.

(Drücken Sie die Leertaste, um fortzufahren)",4,4,0,space,9.62963630000013,None,,,,,,,,,,,,,,,,,,,,,,,0,4,4,4,,,,,,,,,23.7077864999992,,23.665756999998848,23.7077864999992,23.7077864999992,33.338761899998644,space,9.62963630000013,None,,,,,,,,,,,,,,,,,,,,,,,,,,,,,,,,,,,,,,,,,,,,,,,,,,,,,,,,,,,,,,,,,,,,,,330,001,2026-04-01_17h02.24.331,exp_sofc,,2025.2.3,59.91170213366873,2026-04-01 17h02.26.158194 +0200,
,,,,,,,,,,,,,,,,,,,,,,,,,,,,,,,,,,,,,,,,,,,,,,,,,,33.340430899999774,33.36361770000076,33.36361770000076,36.96145329999854,ich stimme zu,3.605771400001686,,,,,,,,,,,,,,,,,,,,,,,,,,,,,,,,,,,,,,,,,,,,,,,,,,,,,,,,,,,,,,,,330,001,2026-04-01_17h02.24.331,exp_sofc,,2025.2.3,59.91170213366873,2026-04-01 17h02.26.158194 +0200,
,,,,,,,,,,,,,,,,,,,,,,,,,,,,,,,,,,,,,,,,,,,,,,,,,,,,,,,,36.96150449999914,36.97761840000021,41.96957150000162,,,,,,,,,,,,,,,,,,,,,,,,,,,,,,,,,,,,,,,,,,,,,,,,,,,,,,,,,,,,,330,001,2026-04-01_17h02.24.331,exp_sofc,,2025.2.3,59.91170213366873,2026-04-01 17h02.26.158194 +0200,
,0,0,0,,,,clip_wurst_09_sub_1,clips/clip_wurst_09_sub_1.mp4,audios/clip_wurst_09_sub_1.mp3,wurst,sub,1,9,3666.0,NA,11267,Wer sind die alten Menschen wahrscheinlich?,Großeltern,Eltern,Geschwister,Nachbarn,4,17.34092740000051,None,,,,,,,,,0,0,0,10,,,,,42.79411529999925,,,,,,,,,,,,,,,,,,clip_weißt_18_nosub_1,clips/clip_weißt_18_nosub_1.mp4,audios/silence.mp3,visual,nosub,True,42.77478909999991,42.79411529999925,42.79411529999925,42.78600816666682,42.79411529999925,43.004325199999585,44.0552448999988,54.9811449000008,54.8160996000006,[6.798117199999979],3,54.97539029999825,54.9811449000008,54.9811449000008,54.9811449000008,72.32885090000127,4,17.34092740000051,None,,,,,,,,,,,,,,,,,,,,,,,,,,,,,,,,,,,,330,001,2026-04-01_17h02.24.331,exp_sofc,,2025.2.3,59.91170213366873,2026-04-01 17h02.26.158194 +0200,
,1,1,0,,,,clip_hund_26_sub_1,clips/clip_hund_26_sub_1.mp4,audios/silence.mp3,hund,sub,0,26,NA,NA,9333,Wie wirkt die Frau?,amüsiert,hasserfüllt,traurig,ängstlich,None,,,,,,,,,,,0,1,1,3,,,,,72.56593459999931,,,,,,,,,,,,,,,,,,clip_hund_28_nosub_0,clips/clip_hund_28_nosub_0.mp4,audios/clip_hund_28_nosub_0.mp3,audiovisual,nosub,False,72.5557587000003,72.83385669999916,73.03555910000068,73.03390076666643,72.56593459999931,73.03555910000068,83.25657050000154,83.25657050000154,82.90726379999978,[],,83.05152369999996,,,,83.05157029999828,None,,,,,,,,,,,,,,,,,,,,,,,,,,,,,,,,,,,,,,330,001,2026-04-01_17h02.24.331,exp_sofc,,2025.2.3,59.91170213366873,2026-04-01 17h02.26.158194 +0200,
,2,2,0,,,,clip_hund_25_sub_1,clips/clip_hund_25_sub_1.mp4,audios/silence.mp3,hund,sub,1,25,5466.0,NA,8300,Mit was essen die Personen?,mit ihren Händen,mit Messer und Gabel,mit Stäbchen,mit einem Löffel,2,6.167189200001303,None,,,,,,,,,0,2,2,11,,,,,83.25657050000154,,,,,,,,,,,,,,,,,,clip_hund_06_nosub_0,clips/clip_hund_06_nosub_0.mp4,audios/clip_hund_06_nosub_0.mp3,audiovisual,nosub,True,83.25080430000162,83.55919989999893,83.76077630000145,83.75904246666711,83.25657050000154,83.76077630000145,,94.79820390000168,94.64412259999881,[],2,94.7923097999992,94.79820390000168,94.79820390000168,94.79820390000168,100.97794689999864,2,6.167189200001303,None,,,,,,,,,,,,,,,,,,,,,,,,,,,,,,,,,,,,330,001,2026-04-01_17h02.24.331,exp_sofc,,2025.2.3,59.91170213366873,2026-04-01 17h02.26.158194 +0200,
,3,3,0,,,,clip_weißt_05_sub_0,clips/clip_weißt_05_sub_0.mp4,audios/clip_weißt_05_sub_0.mp3,weißt,sub,0,5,NA,NA,9767,Wer trägt die Leiter?,die Frau,der Mann,beide,keiner,3,5.944878600002994,None,,,,,,,,,0,3,3,0,,,,,101.17814740000176,,,,,,,,,,,,,,,,,,clip_weißt_09_sub_1,clips/clip_weißt_09_sub_1.mp4,audios/silence.mp3,visual,sub,True,101.17181759999949,101.48630400000184,101.68858919999911,101.68708686666675,101.17814740000176,101.68858919999911,102.9390925000007,110.86820109999826,110.71991450000132,[5.969483200002287],4,110.86325289999877,110.86820109999826,110.86820109999826,110.86820109999826,116.8197470999985,3,5.944878600002994,None,,,,,,,,,,,,,,,,,,,,,,,,,,,,,,,,,,,,330,001,2026-04-01_17h02.24.331,exp_sofc,,2025.2.3,59.91170213366873,2026-04-01 17h02.26.158194 +0200,
,4,4,0,,,,clip_weißt_21_nosub_0,clips/clip_weißt_21_nosub_0.mp4,audios/silence.mp3,weißt,nosub,0,21,NA,NA,10080,Wo stehen die Personen?,am Balkongeländer,am Strand,an einer Bushaltestelle,im Wald,None,,,,,,,,,,,0,4,4,1,,,,,117.01928929999849,,,,,,,,,,,,,,,,,,clip_hund_31_sub_0,clips/clip_hund_31_sub_0.mp4,audios/silence.mp3,visual,sub,False,117.01061059999847,117.32864989999871,117.52905770000143,117.52825956666517,117.01928929999849,117.52905770000143,118.78079920000164,126.26945269999851,125.99342379999871,[3.529915200000687],,126.12325899999996,,,,126.12330640000073,None,,,,,,,,,,,,,,,,,,,,,,,,,,,,,,,,,,,,,,330,001,2026-04-01_17h02.24.331,exp_sofc,,2025.2.3,59.91170213366873,2026-04-01 17h02.26.158194 +0200,
,5,5,0,,,,clip_hund_31_sub_0,clips/clip_hund_31_sub_0.mp4,audios/silence.mp3,hund,sub,1,31,1966.0,NA,8433,Welche Tageszeit ist es?,abends,morgens,mittags,nachts,None,,,,,,,,,,,0,5,5,9,,,,,126.26945269999851,,,,,,,,,,,,,,,,,,clip_hund_25_sub_1,clips/clip_hund_25_sub_1.mp4,audios/silence.mp3,visual,sub,False,126.26254170000175,126.62595339999825,126.82866120000108,126.82789576666643,126.26945269999851,126.82866120000108,128.07802670000092,135.48811270000078,135.15773289999925,[6.574118799999269],,135.2830040000008,,,,135.28305030000047,None,,,,,,,,,,,,,,,,,,,,,,,,,,,,,,,,,,,,,,330,001,2026-04-01_17h02.24.331,exp_sofc,,2025.2.3,59.91170213366873,2026-04-01 17h02.26.158194 +0200,
,6,6,0,,,,clip_hund_02_sub_1,clips/clip_hund_02_sub_1.mp4,audios/clip_hund_02_sub_1.mp3,hund,sub,1,2,8300.0,NA,9900,Welche Farbe hat der Pullover der Frau?,grün,schwarz,blau,rot,None,,,,,,,,,,,0,6,6,8,,,,,135.48811270000078,,,,,,,,,,,,,,,,,,clip_hund_02_sub_1,clips/clip_hund_02_sub_1.mp4,audios/clip_hund_02_sub_1.mp3,audiovisual,sub,False,135.48054630000115,135.791096500001,135.99344180000116,135.990302866667,135.48811270000078,135.99344180000116,146.24174629999834,146.24174629999834,145.90850259999934,[9.471573400001944],,146.03894310000032,,,,146.03899829999864,None,,,,,,,,,,,,,,,,,,,,,,,,,,,,,,,,,,,,,,330,001,2026-04-01_17h02.24.331,exp_sofc,,2025.2.3,59.91170213366873,2026-04-01 17h02.26.158194 +0200,
,7,7,0,,,,clip_hund_06_nosub_0,clips/clip_hund_06_nosub_0.mp4,audios/clip_hund_06_nosub_0.mp3,hund,nosub,0,6,NA,NA,10860,Wie sieht das Studio aus?,unaufgeräumt,sehr ordentlich,komplett leer,stark überfüllt,None,,,,,,,,,,,0,7,7,2,,,,,146.24174629999834,,,,,,,,,,,,,,,,,,clip_wurst_09_sub_1,clips/clip_wurst_09_sub_1.mp4,audios/clip_wurst_09_sub_1.mp3,audiovisual,sub,False,146.23428720000084,146.5437020999998,146.74526219999825,146.7437796666675,146.24174629999834,146.74526219999825,,158.3416975,158.02854859999934,[],,158.17085790000056,,,,158.17100779999964,None,,,,,,,,,,,,,,,,,,,,,,,,,,,,,,,,,,,,,,330,001,2026-04-01_17h02.24.331,exp_sofc,,2025.2.3,59.91170213366873,2026-04-01 17h02.26.158194 +0200,
,8,8,0,,,,clip_weißt_10_nosub_1,clips/clip_weißt_10_nosub_1.mp4,audios/clip_weißt_10_nosub_1.mp3,weißt,nosub,1,10,4280.0,NA,11000,Was macht der Mann?,er greift an den Fernseher,er schaltet das Radio ein,er wirft eine Flasche,er öffnet das Fenster,None,,,,,,,,,,,0,8,8,6,,,,,158.3416975,,,,,,,,,,,,,,,,,,clip_hund_26_sub_1,clips/clip_hund_26_sub_1.mp4,audios/silence.mp3,visual,sub,False,158.3364001000009,158.67658899999878,158.8802868999992,158.8772736666654,158.3416975,158.8802868999992,160.12904949999938,168.58019449999847,168.2430177999995,[],,168.3852337999997,,,,168.38534749999963,None,,,,,,,,,,,,,,,,,,,,,,,,,,,,,,,,,,,,,,330,001,2026-04-01_17h02.24.331,exp_sofc,,2025.2.3,59.91170213366873,2026-04-01 17h02.26.158194 +0200,
,9,9,0,,,,clip_weißt_09_sub_1,clips/clip_weißt_09_sub_1.mp4,audios/silence.mp3,weißt,sub,1,9,4866.0,NA,9000,Was macht die Frau?,sie wickelt ein Band auf,sie näht,sie strickt,sie faltet Wäsche,None,,,,,,,,,,,0,9,9,5,,,,,168.58019449999847,,,,,,,,,,,,,,,,,,clip_weißt_05_sub_0,clips/clip_weißt_05_sub_0.mp4,audios/clip_weißt_05_sub_0.mp3,audiovisual,sub,False,168.57430229999954,168.89846839999882,169.1002569000011,169.09853556666738,168.58019449999847,169.1002569000011,,179.23555159999887,178.89959850000014,[],,179.0473404000004,,,,179.0474342000016,None,,,,,,,,,,,,,,,,,,,,,,,,,,,,,,,,,,,,,,330,001,2026-04-01_17h02.24.331,exp_sofc,,2025.2.3,59.91170213366873,2026-04-01 17h02.26.158194 +0200,
,10,10,0,,,,clip_hund_28_nosub_0,clips/clip_hund_28_nosub_0.mp4,audios/clip_hund_28_nosub_0.mp3,hund,nosub,0,28,NA,NA,9840,Was steht auf dem Tisch vor den Personen?,Weinflasche mit Gläsern,Wasser,Bier,Kaffee,2,5.109927299999981,None,,,,,,,,,0,10,10,4,,,,,179.23555159999887,,,,,,,,,,,,,,,,,,clip_weißt_10_nosub_1,clips/clip_weißt_10_nosub_1.mp4,audios/clip_weißt_10_nosub_1.mp3,audiovisual,nosub,True,179.22926680000091,179.54861729999902,179.74964499999987,179.74833276666712,179.23555159999887,179.74964499999987,190.93008859999827,190.93008859999827,190.76754319999964,[5.4026602000012645],2,190.92458469999838,190.93008859999827,190.93008859999827,190.93008859999827,196.05624090000128,2,5.109927299999981,None,,,,,,,,,,,,,,,,,,,,,,,,,,,,,,,,,,,,330,001,2026-04-01_17h02.24.331,exp_sofc,,2025.2.3,59.91170213366873,2026-04-01 17h02.26.158194 +0200,
,11,11,0,,,,clip_weißt_18_nosub_1,clips/clip_weißt_18_nosub_1.mp4,audios/silence.mp3,weißt,nosub,1,18,5680.0,NA,12000,Wie wirken die Personen?,überrascht,wütend,verzweifelt,gelangweilt,None,,,,,,,,,,,0,11,11,7,,,,,196.2397791000003,,,,,,,,,,,,,,,,,,clip_weißt_21_nosub_0,clips/clip_weißt_21_nosub_0.mp4,audios/silence.mp3,visual,nosub,False,196.2311465999992,196.55857319999996,196.75874040000053,196.7589831666667,196.2397791000003,196.75874040000053,198.01049970000167,207.0039226000008,206.85823309999978,[],,206.9988959000002,,,,206.99895090000064,None,,,,,,,,,,,,,,,,,,,,,,,,,,,,,,,,,,,,,,330,001,2026-04-01_17h02.24.331,exp_sofc,,2025.2.3,59.91170213366873,2026-04-01 17h02.26.158194 +0200,
,,,,,,,,,,,,,,,,,,,,,,,,,,,,,,,,,,,,,,,,,,,,,,,,,,,,,,,,,,,,,,,,,,,,,,,,,,,,,,,,,,,,206.99905840000065,207.0039226000008,212.18163030000142,211.99158190000162,,,,,,,,,,,,,,,,,,,,,,,,,,,,,,,,330,001,2026-04-01_17h02.24.331,exp_sofc,,2025.2.3,59.91170213366873,2026-04-01 17h02.26.158194 +0200,
,0,0,0,,,,,,,,,,,,,,,,,,,,,,None,None,,,,,,,,,,,0,0,0,0,212.18163030000142,,,,,,,,,,,,,,,,,,,,,,,,,,,,,,,,,,,,,,,,,,,,,,,clips/clip_dampf_01_sub_0.mp4,audios/clip_dampf_01_sub_0.mp3,audiovisual,212.17631130000154,212.49963280000156,212.7026991999992,212.7026991999992,212.70028786666833,222.43227699999989,222.43227699999989,222.13097460000063,[],222.27970039999855,222.27980409999873,None,222.27988769999865,222.27994089999993,None,,,,,,,,,,,,,,330,001,2026-04-01_17h02.24.331,exp_sofc,,2025.2.3,59.91170213366873,2026-04-01 17h02.26.158194 +0200,
,1,0,1,,,,,,,,,,,,,,,,,,,,,,3,None,21.072086799998942,None,,,,,,,,,1,0,1,0,222.43227699999989,,,,,,,,,,,,,,,,,,,,,,,,,,,,,,,,,,,,,,,,,,,,,,,clips/clip_claude_09_sub_2.mp4,audios/silence.mp3,visual,222.4285364999996,222.79065189999892,222.99309640000138,222.99309640000138,222.9916768666665,233.40758690000075,224.24209020000126,233.22380260000136,"[0.17818809999880614, 4.13012929999968, 4.827488599999924]",233.40131979999933,254.49284030000126,3,254.49295970000094,254.49301859999832,None,4,233.40758690000075,233.40758690000075,233.40758690000075,21.072086799998942,None,,,,,,,,330,001,2026-04-01_17h02.24.331,exp_sofc,,2025.2.3,59.91170213366873,2026-04-01 17h02.26.158194 +0200,
,2,0,2,,,,,,,,,,,,,,,,,,,,,,None,None,,,,,,,,,,,2,0,2,0,254.6402808999992,,,,,,,,,,,,,,,,,,,,,,,,,,,,,,,,,,,,,,,,,,,,,,,clips/clip_holo_28_nosub_0.mp4,audios/silence.mp3,visual,254.63633480000135,255.00116880000132,255.20269760000156,255.20269760000156,255.20103276666512,264.0060741999987,256.4527127000001,263.7312521999993,[],263.8659015999983,263.86596479999935,None,263.8660157000013,263.86604570000054,None,,,,,,,,,,,,,,330,001,2026-04-01_17h02.24.331,exp_sofc,,2025.2.3,59.91170213366873,2026-04-01 17h02.26.158194 +0200,
,3,0,3,,,,,,,,,,,,,,,,,,,,,,4,None,8.133092200001556,None,,,,,,,,,3,0,3,0,264.0060741999987,,,,,,,,,,,,,,,,,,,,,,,,,,,,,,,,,,,,,,,,,,,,,,,clips/clip_weißt_15_sub_1.mp4,audios/silence.mp3,visual,264.00232999999935,264.36529510000037,264.57088999999905,264.57088999999905,264.5662671666653,275.6656776999989,265.7993859999988,275.4993880000002,"[2.98336990000098, 5.141314300002705]",275.6593666000008,283.81292929999836,4,283.81307789999846,283.8131342000015,None,4,275.6656776999989,275.6656776999989,275.6656776999989,8.133092200001556,None,,,,,,,,330,001,2026-04-01_17h02.24.331,exp_sofc,,2025.2.3,59.91170213366873,2026-04-01 17h02.26.158194 +0200,
,4,0,4,,,,,,,,,,,,,,,,,,,,,,None,None,,,,,,,,,,,4,0,4,0,283.99326799999835,,,,,,,,,,,,,,,,,,,,,,,,,,,,,,,,,,,,,,,,,,,,,,,clips/clip_holo_08_nosub_2.mp4,audios/silence.mp3,visual,283.9878291999994,284.31270629999926,284.5135197000018,284.5135197000018,284.513411666667,295.66741040000124,285.7657485999989,295.3141285999991,"[4.144949699999415, 9.008260099999461]",295.4622215999989,295.4622750000017,None,295.4623213999985,295.4623501999995,None,,,,,,,,,,,,,,330,001,2026-04-01_17h02.24.331,exp_sofc,,2025.2.3,59.91170213366873,2026-04-01 17h02.26.158194 +0200,
,5,0,5,,,,,,,,,,,,,,,,,,,,,,None,None,,,,,,,,,,,5,0,5,0,295.66741040000124,,,,,,,,,,,,,,,,,,,,,,,,,,,,,,,,,,,,,,,,,,,,,,,clips/clip_weißt_14_sub_2.mp4,audios/clip_weißt_14_sub_2.mp3,audiovisual,295.661856499999,295.9723109000006,296.17759600000136,296.17759600000136,296.173662166668,305.4596724000003,305.1034001000007,305.10371529999975,"[3.767082300000766, 8.095482299999276]",305.25472420000006,305.25480249999964,None,305.25487689999864,305.2549250000011,None,,,,,,,,,,,,,,330,001,2026-04-01_17h02.24.331,exp_sofc,,2025.2.3,59.91170213366873,2026-04-01 17h02.26.158194 +0200,
,6,0,6,,,,,,,,,,,,,,,,,,,,,,None,None,,,,,,,,,,,6,0,6,0,305.4596724000003,,,,,,,,,,,,,,,,,,,,,,,,,,,,,,,,,,,,,,,,,,,,,,,clips/clip_wurst_19_nosub_0.mp4,audios/clip_wurst_19_nosub_0.mp3,audiovisual,305.4546205000006,305.7631647999988,305.96296620000066,305.96296620000066,305.9642821666678,317.29384330000175,316.997443799999,316.9978893000007,[],317.1401755000006,317.14023989999987,None,317.14030830000047,317.1404057,None,,,,,,,,,,,,,,330,001,2026-04-01_17h02.24.331,exp_sofc,,2025.2.3,59.91170213366873,2026-04-01 17h02.26.158194 +0200,
,7,0,7,,,,,,,,,,,,,,,,,,,,,,None,None,,,,,,,,,,,7,0,7,0,317.29384330000175,,,,,,,,,,,,,,,,,,,,,,,,,,,,,,,,,,,,,,,,,,,,,,,clips/clip_herz_08_nosub_0.mp4,audios/silence.mp3,visual,317.29084259999945,317.64064789999975,317.84269420000055,317.84269420000055,317.84157106666703,330.21584200000143,319.08307459999924,329.8588368000019,"[5.155053599999519, 9.545821299998352]",330.0019210999999,330.0020093999992,None,330.00207070000033,330.00212159999865,None,,,,,,,,,,,,,,330,001,2026-04-01_17h02.24.331,exp_sofc,,2025.2.3,59.91170213366873,2026-04-01 17h02.26.158194 +0200,
,8,0,8,,,,,,,,,,,,,,,,,,,,,,None,None,,,,,,,,,,,8,0,8,0,330.21584200000143,,,,,,,,,,,,,,,,,,,,,,,,,,,,,,,,,,,,,,,,,,,,,,,clips/clip_hund_17_nosub_1.mp4,audios/clip_hund_17_nosub_1.mp3,audiovisual,330.2106759999988,330.5011713999993,330.70227779999914,330.70227779999914,330.7025117666674,343.30231800000183,343.30231800000183,343.0140241000008,[9.923475999999937],343.1253500999992,343.1253987000018,None,343.12546160000056,343.12549520000175,None,,,,,,,,,,,,,,330,001,2026-04-01_17h02.24.331,exp_sofc,,2025.2.3,59.91170213366873,2026-04-01 17h02.26.158194 +0200,
,9,0,9,,,,,,,,,,,,,,,,,,,,,,1,None,9.058038999999553,None,,,,,,,,,9,0,9,0,343.30231800000183,,,,,,,,,,,,,,,,,,,,,,,,,,,,,,,,,,,,,,,,,,,,,,,clips/clip_herz_11_nosub_0.mp4,audios/clip_herz_11_nosub_0.mp3,audiovisual,343.29776610000044,343.6311147999986,343.83037630000035,343.83037630000035,343.8309706666662,353.28116379999847,,353.13629950000177,[4.976539400002366],353.2751040000003,362.3522238000005,1,362.35232140000153,362.3523700000005,None,3,353.28116379999847,353.28116379999847,353.28116379999847,9.058038999999553,None,,,,,,,,330,001,2026-04-01_17h02.24.331,exp_sofc,,2025.2.3,59.91170213366873,2026-04-01 17h02.26.158194 +0200,
,10,0,10,,,,,,,,,,,,,,,,,,,,,,None,None,,,,,,,,,,,10,0,10,0,362.5287137999985,,,,,,,,,,,,,,,,,,,,,,,,,,,,,,,,,,,,,,,,,,,,,,,clips/clip_weißt_04_sub_0.mp4,audios/silence.mp3,visual,362.52473610000015,362.85205439999845,363.0567277000009,363.0567277000009,363.05210936666504,373.4495766,364.3042647000002,373.15146209999875,[],373.28741250000166,373.2875242000009,None,373.28760279999915,373.28765159999966,None,,,,,,,,,,,,,,330,001,2026-04-01_17h02.24.331,exp_sofc,,2025.2.3,59.91170213366873,2026-04-01 17h02.26.158194 +0200,
,11,0,11,,,,,,,,,,,,,,,,,,,,,,None,None,,,,,,,,,,,11,0,11,0,373.4495766,,,,,,,,,,,,,,,,,,,,,,,,,,,,,,,,,,,,,,,,,,,,,,,clips/clip_wurst_15_sub_2.mp4,audios/silence.mp3,visual,373.4458679999989,373.7942503000013,373.99425379999957,373.99425379999957,373.9939778666669,383.7087640999998,375.2456373999994,383.4268497000012,"[5.551251400000183, 7.81913650000206]",383.57359120000183,383.57365779999964,None,383.5737283000017,383.5737764000005,None,,,,,,,,,,,,,,330,001,2026-04-01_17h02.24.331,exp_sofc,,2025.2.3,59.91170213366873,2026-04-01 17h02.26.158194 +0200,
,12,0,12,,,,,,,,,,,,,,,,,,,,,,None,None,,,,,,,,,,,12,0,12,0,383.7087640999998,,,,,,,,,,,,,,,,,,,,,,,,,,,,,,,,,,,,,,,,,,,,,,,clips/clip_lied_20_sub_2.mp4,audios/silence.mp3,visual,383.7053811000005,384.07797460000074,384.27783940000154,384.27783940000154,384.27806176666513,395.2449837999993,385.5313255000001,394.97818410000036,"[3.824430600001506, 8.156389600000693]",395.1019699999997,395.1020424999988,None,395.10211179999897,395.1021873999998,None,,,,,,,,,,,,,,330,001,2026-04-01_17h02.24.331,exp_sofc,,2025.2.3,59.91170213366873,2026-04-01 17h02.26.158194 +0200,
,13,0,13,,,,,,,,,,,,,,,,,,,,,,None,None,,,,,,,,,,,13,0,13,0,395.2449837999993,,,,,,,,,,,,,,,,,,,,,,,,,,,,,,,,,,,,,,,,,,,,,,,clips/clip_weißt_06_nosub_0.mp4,audios/silence.mp3,visual,395.24216890000025,395.61241130000053,395.8127697000018,395.8127697000018,395.813473866667,406.48013360000186,397.0642246999996,406.1456481999994,[5.448906099998567],406.2803724000005,406.28044990000126,None,406.2805249000012,406.2805687,None,,,,,,,,,,,,,,330,001,2026-04-01_17h02.24.331,exp_sofc,,2025.2.3,59.91170213366873,2026-04-01 17h02.26.158194 +0200,
,14,0,14,,,,,,,,,,,,,,,,,,,,,,4,None,7.230845099998987,None,,,,,,,,,14,0,14,0,406.48013360000186,,,,,,,,,,,,,,,,,,,,,,,,,,,,,,,,,,,,,,,,,,,,,,,clips/clip_lied_21_sub_2.mp4,audios/clip_lied_21_sub_2.mp3,audiovisual,406.4752842000016,406.7814628999986,406.9843455000009,406.9843455000009,406.9820890666672,418.65922000000137,418.65922000000137,418.4998454000015,"[5.13925190000009, 10.543488999999681]",418.6536797000008,425.89263310000024,4,425.89279420000094,425.8928670999994,None,4,418.65922000000137,418.65922000000137,418.65922000000137,7.230845099998987,None,,,,,,,,330,001,2026-04-01_17h02.24.331,exp_sofc,,2025.2.3,59.91170213366873,2026-04-01 17h02.26.158194 +0200,
,15,0,15,,,,,,,,,,,,,,,,,,,,,,None,None,,,,,,,,,,,15,0,15,0,426.11399470000106,,,,,,,,,,,,,,,,,,,,,,,,,,,,,,,,,,,,,,,,,,,,,,,clips/clip_holo_07_nosub_0.mp4,audios/silence.mp3,visual,426.1066299999984,426.40615980000075,426.60646199999974,426.60646199999974,426.606083466668,436.3099242999997,427.85796259999915,436.00453220000054,[],436.1249905000004,436.1250617000005,None,436.1251259000019,436.125172,None,,,,,,,,,,,,,,330,001,2026-04-01_17h02.24.331,exp_sofc,,2025.2.3,59.91170213366873,2026-04-01 17h02.26.158194 +0200,
,16,0,16,,,,,,,,,,,,,,,,,,,,,,4,None,9.090016499998455,None,,,,,,,,,16,0,16,0,436.3099242999997,,,,,,,,,,,,,,,,,,,,,,,,,,,,,,,,,,,,,,,,,,,,,,,clips/clip_claude_27_nosub_0.mp4,audios/clip_claude_27_nosub_0.mp3,audiovisual,436.3054181000007,436.63052660000176,436.8316421999989,436.8316421999989,436.83050796666816,449.01009749999866,449.01009749999866,448.8494728000005,[0.4725064000012935],449.0039703000002,458.10900160000165,4,458.10910090000107,458.10914050000065,None,4,449.01009749999866,449.01009749999866,449.01009749999866,9.090016499998455,None,,,,,,,,330,001,2026-04-01_17h02.24.331,exp_sofc,,2025.2.3,59.91170213366873,2026-04-01 17h02.26.158194 +0200,
,17,0,17,,,,,,,,,,,,,,,,,,,,,,None,None,,,,,,,,,,,17,0,17,0,458.2675310000013,,,,,,,,,,,,,,,,,,,,,,,,,,,,,,,,,,,,,,,,,,,,,,,clips/clip_wurst_22_nosub_0.mp4,audios/silence.mp3,visual,458.2618895000014,458.6198504999993,458.82020190000185,458.82020190000185,458.8203362666684,470.8109790999988,460.0709879999995,470.52103290000014,[],470.6385947000017,470.638646899999,None,470.63869239999985,470.6387207000007,None,,,,,,,,,,,,,,330,001,2026-04-01_17h02.24.331,exp_sofc,,2025.2.3,59.91170213366873,2026-04-01 17h02.26.158194 +0200,
,18,0,18,,,,,,,,,,,,,,,,,,,,,,None,None,,,,,,,,,,,18,0,18,0,470.8109790999988,,,,,,,,,,,,,,,,,,,,,,,,,,,,,,,,,,,,,,,,,,,,,,,clips/clip_herz_04_sub_0.mp4,audios/clip_herz_04_sub_0.mp3,audiovisual,470.80616459999874,471.1456853000018,471.34731850000026,471.34731850000026,471.34773706666624,482.68704119999893,482.37989749999906,482.38030309999886,[7.900535199998558],482.50629599999957,482.50634640000135,None,482.5064252000011,482.5064592000017,None,,,,,,,,,,,,,,330,001,2026-04-01_17h02.24.331,exp_sofc,,2025.2.3,59.91170213366873,2026-04-01 17h02.26.158194 +0200,
,19,0,19,,,,,,,,,,,,,,,,,,,,,,None,None,,,,,,,,,,,19,0,19,0,482.68704119999893,,,,,,,,,,,,,,,,,,,,,,,,,,,,,,,,,,,,,,,,,,,,,,,clips/clip_wurst_26_nosub_1.mp4,audios/clip_wurst_26_nosub_1.mp3,audiovisual,482.68251370000144,483.0058112000006,483.2082550000014,483.2082550000014,483.2065712666665,495.53674469999896,495.53674469999896,495.22471589999986,[10.374598800000967],495.35686749999877,495.3569634999985,None,495.35703680000006,495.3570833999984,None,,,,,,,,,,,,,,330,001,2026-04-01_17h02.24.331,exp_sofc,,2025.2.3,59.91170213366873,2026-04-01 17h02.26.158194 +0200,
,20,0,20,,,,,,,,,,,,,,,,,,,,,,2,None,6.975060999997368,None,,,,,,,,,20,0,20,0,495.53674469999896,,,,,,,,,,,,,,,,,,,,,,,,,,,,,,,,,,,,,,,,,,,,,,,clips/clip_holo_09_sub_2.mp4,audios/clip_holo_09_sub_2.mp3,audiovisual,495.53156730000046,495.87155020000137,496.073417399999,496.073417399999,496.07190986666706,507.6449938000005,,507.4933781,[],507.6400973000018,514.6273812,2,514.6274746999989,514.6275094000011,None,2,507.6449938000005,507.6449938000005,507.6449938000005,6.975060999997368,None,,,,,,,,330,001,2026-04-01_17h02.24.331,exp_sofc,,2025.2.3,59.91170213366873,2026-04-01 17h02.26.158194 +0200,
,21,0,21,,,,,,,,,,,,,,,,,,,,,,None,None,,,,,,,,,,,21,0,21,0,514.8260078999992,,,,,,,,,,,,,,,,,,,,,,,,,,,,,,,,,,,,,,,,,,,,,,,clips/clip_hund_09_sub_2.mp4,audios/clip_hund_09_sub_2.mp3,audiovisual,514.8206155000007,515.1350669999993,515.3383861000002,515.3383861000002,515.3351632666675,527.1754108999994,527.1754108999994,526.8965188000002,"[5.829046200000448, 10.571017499998561]",527.0221429000012,527.0222117999983,None,527.0222643000016,527.0222973999989,None,,,,,,,,,,,,,,330,001,2026-04-01_17h02.24.331,exp_sofc,,2025.2.3,59.91170213366873,2026-04-01 17h02.26.158194 +0200,
,22,0,22,,,,,,,,,,,,,,,,,,,,,,None,None,,,,,,,,,,,22,0,22,0,527.1754108999994,,,,,,,,,,,,,,,,,,,,,,,,,,,,,,,,,,,,,,,,,,,,,,,clips/clip_wurst_31_sub_1.mp4,audios/silence.mp3,visual,527.1708720999995,527.5268714999984,527.7279172000017,527.7279172000017,527.7277081666655,539.0435644999998,528.9787741,538.761736299999,[],538.8973831000003,538.8975080000018,None,538.8975733000007,538.8976075999999,None,,,,,,,,,,,,,,330,001,2026-04-01_17h02.24.331,exp_sofc,,2025.2.3,59.91170213366873,2026-04-01 17h02.26.158194 +0200,
,23,0,23,,,,,,,,,,,,,,,,,,,,,,None,None,,,,,,,,,,,23,0,23,0,539.0435644999998,,,,,,,,,,,,,,,,,,,,,,,,,,,,,,,,,,,,,,,,,,,,,,,clips/clip_weißt_22_nosub_0.mp4,audios/silence.mp3,visual,539.0399189000018,539.4119465000003,539.6149111000013,539.6149111000013,539.6130282666675,551.0042259000002,540.8643073999992,550.7132091999993,[],550.8661033999997,550.8661754999994,None,550.8662460999985,550.8662928999984,None,,,,,,,,,,,,,,330,001,2026-04-01_17h02.24.331,exp_sofc,,2025.2.3,59.91170213366873,2026-04-01 17h02.26.158194 +0200,
,24,0,24,,,,,,,,,,,,,,,,,,,,,,None,None,,,,,,,,,,,24,0,24,0,551.0042259000002,,,,,,,,,,,,,,,,,,,,,,,,,,,,,,,,,,,,,,,,,,,,,,,clips/clip_dampf_05_sub_2.mp4,audios/silence.mp3,visual,551.0006962000007,551.3725344000013,551.5732217000004,551.5732217000004,551.5737494666685,560.5438237999988,552.8242840999992,560.2697775000015,[9.178651499998523],560.4005727000003,560.4007079000003,None,560.4008079000014,560.4008448999994,None,,,,,,,,,,,,,,330,001,2026-04-01_17h02.24.331,exp_sofc,,2025.2.3,59.91170213366873,2026-04-01 17h02.26.158194 +0200,
,25,0,25,,,,,,,,,,,,,,,,,,,,,,None,None,,,,,,,,,,,25,0,25,0,560.5438237999988,,,,,,,,,,,,,,,,,,,,,,,,,,,,,,,,,,,,,,,,,,,,,,,clips/clip_weißt_11_nosub_0.mp4,audios/silence.mp3,visual,560.5403555999983,560.9035703000009,561.1075058999995,561.1075058999995,561.1042070666665,571.4381738000011,562.3559620999986,571.1372408999996,[],571.2553802000002,571.2554286999984,None,571.2554745999987,571.2555054000004,None,,,,,,,,,,,,,,330,001,2026-04-01_17h02.24.331,exp_sofc,,2025.2.3,59.91170213366873,2026-04-01 17h02.26.158194 +0200,
,26,0,26,,,,,,,,,,,,,,,,,,,,,,1,None,4.520532999998977,None,,,,,,,,,26,0,26,0,571.4381738000011,,,,,,,,,,,,,,,,,,,,,,,,,,,,,,,,,,,,,,,,,,,,,,,clips/clip_holo_18_nosub_0.mp4,audios/clip_holo_18_nosub_0.mp3,audiovisual,571.4333082999983,571.7623109000015,571.9645402999995,571.9645402999995,571.9634324666661,583.9800434999997,583.8330342000008,583.833359100001,"[6.28837410000051, 8.954092399999354]",583.9753416999993,588.5147152999998,1,588.5148182999983,588.5148550999984,None,1,583.9800434999997,583.9800434999997,583.9800434999997,4.520532999998977,None,,,,,,,,330,001,2026-04-01_17h02.24.331,exp_sofc,,2025.2.3,59.91170213366873,2026-04-01 17h02.26.158194 +0200,
,27,0,27,,,,,,,,,,,,,,,,,,,,,,None,None,,,,,,,,,,,27,0,27,0,588.7057811999985,,,,,,,,,,,,,,,,,,,,,,,,,,,,,,,,,,,,,,,,,,,,,,,clips/clip_herz_15_nosub_0.mp4,audios/clip_herz_15_nosub_0.mp3,audiovisual,588.6992329999994,589.0225374000001,589.2256392000018,589.2256392000018,589.2234837666658,601.5478202000013,601.5478202000013,601.243172800001,[3.3403371999993396],601.3686535000015,601.3687035000003,None,601.3687452000013,601.3687748000011,None,,,,,,,,,,,,,,330,001,2026-04-01_17h02.24.331,exp_sofc,,2025.2.3,59.91170213366873,2026-04-01 17h02.26.158194 +0200,
,28,0,28,,,,,,,,,,,,,,,,,,,,,,None,None,,,,,,,,,,,28,0,28,0,601.5478202000013,,,,,,,,,,,,,,,,,,,,,,,,,,,,,,,,,,,,,,,,,,,,,,,clips/clip_claude_11_nosub_0.mp4,audios/clip_claude_11_nosub_0.mp3,audiovisual,601.5428508000005,601.8673799999997,602.0713509000016,602.0713509000016,602.068330266666,612.4258031999998,612.0999010999985,612.1001333999993,[],612.237896300001,612.2379476999995,None,612.2379948000016,612.2380226999994,None,,,,,,,,,,,,,,330,001,2026-04-01_17h02.24.331,exp_sofc,,2025.2.3,59.91170213366873,2026-04-01 17h02.26.158194 +0200,
,29,0,29,,,,,,,,,,,,,,,,,,,,,,3,None,5.349105899997085,None,,,,,,,,,29,0,29,0,612.4258031999998,,,,,,,,,,,,,,,,,,,,,,,,,,,,,,,,,,,,,,,,,,,,,,,clips/clip_claude_01_sub_2.mp4,audios/clip_claude_01_sub_2.mp3,audiovisual,612.4212168000013,612.7511663000005,612.9526379000017,612.9526379000017,612.9515900666668,624.0875211999992,623.9228489000016,623.9233287999996,[8.730558300001576],624.0809692000003,629.4454893000002,3,629.4456247999988,629.4456834999983,None,3,624.0875211999992,624.0875211999992,624.0875211999992,5.349105899997085,None,,,,,,,,330,001,2026-04-01_17h02.24.331,exp_sofc,,2025.2.3,59.91170213366873,2026-04-01 17h02.26.158194 +0200,
,30,0,30,,,,,,,,,,,,,,,,,,,,,,None,None,,,,,,,,,,,30,0,30,0,629.6127506000012,,,,,,,,,,,,,,,,,,,,,,,,,,,,,,,,,,,,,,,,,,,,,,,clips/clip_wurst_05_nosub_0.mp4,audios/silence.mp3,visual,629.6070379999983,629.9626009999993,630.1612994999996,630.1455888000019,630.1447102666682,639.1053924000007,631.3969929000014,638.8427593999986,[],638.9709805999992,638.9710419000003,None,638.9710941000012,638.9711247000014,None,,,,,,,,,,,,,,330,001,2026-04-01_17h02.24.331,exp_sofc,,2025.2.3,59.91170213366873,2026-04-01 17h02.26.158194 +0200,
,31,0,31,,,,,,,,,,,,,,,,,,,,,,None,None,,,,,,,,,,,31,0,31,0,639.1053924000007,,,,,,,,,,,,,,,,,,,,,,,,,,,,,,,,,,,,,,,,,,,,,,,clips/clip_hund_27_nosub_1.mp4,audios/silence.mp3,visual,639.1020919000002,639.4738302000005,639.6764102000016,639.6764102000016,639.6754135666672,650.2416145999996,640.926518799999,649.9070437000009,[4.645260400000552],650.0346329999993,650.0347165999992,None,650.0350276999998,650.0350847000009,None,,,,,,,,,,,,,,330,001,2026-04-01_17h02.24.331,exp_sofc,,2025.2.3,59.91170213366873,2026-04-01 17h02.26.158194 +0200,
,32,0,32,,,,,,,,,,,,,,,,,,,,,,None,None,,,,,,,,,,,32,0,32,0,650.2416145999996,,,,,,,,,,,,,,,,,,,,,,,,,,,,,,,,,,,,,,,,,,,,,,,clips/clip_hund_21_nosub_1.mp4,audios/clip_hund_21_nosub_1.mp3,audiovisual,650.2359264000006,650.5449657999998,650.7599698000013,650.7442273999986,650.7433040666658,661.0641237000018,660.7633662000007,660.7636383999998,[7.746146499997849],660.8850757,660.8851490999987,None,660.8852200000001,660.8852599999991,None,,,,,,,,,,,,,,330,001,2026-04-01_17h02.24.331,exp_sofc,,2025.2.3,59.91170213366873,2026-04-01 17h02.26.158194 +0200,
,33,0,33,,,,,,,,,,,,,,,,,,,,,,None,None,,,,,,,,,,,33,0,33,0,661.0641237000018,,,,,,,,,,,,,,,,,,,,,,,,,,,,,,,,,,,,,,,,,,,,,,,clips/clip_lied_05_sub_0.mp4,audios/clip_lied_05_sub_0.mp3,audiovisual,661.0593077000012,661.3856039999991,661.5864727000007,661.5864727000007,661.5856005666685,671.3224412000018,,670.9867601000005,[],671.1167616999992,671.1168804000008,None,671.1169988000001,671.1171442999985,None,,,,,,,,,,,,,,330,001,2026-04-01_17h02.24.331,exp_sofc,,2025.2.3,59.91170213366873,2026-04-01 17h02.26.158194 +0200,
,34,0,34,,,,,,,,,,,,,,,,,,,,,,None,None,,,,,,,,,,,34,0,34,0,671.3224412000018,,,,,,,,,,,,,,,,,,,,,,,,,,,,,,,,,,,,,,,,,,,,,,,clips/clip_hund_12_nosub_1.mp4,audios/clip_hund_12_nosub_1.mp3,audiovisual,671.3157675000002,671.6263744999997,671.8251046000005,671.8251046000005,671.8260084666656,683.3614300000008,683.0591535999993,683.059362,[9.82802399999855],683.1730582000018,683.1731693000002,None,683.1733042999986,683.1733562000009,None,,,,,,,,,,,,,,330,001,2026-04-01_17h02.24.331,exp_sofc,,2025.2.3,59.91170213366873,2026-04-01 17h02.26.158194 +0200,
,35,0,35,,,,,,,,,,,,,,,,,,,,,,None,None,,,,,,,,,,,35,0,35,0,683.3614300000008,,,,,,,,,,,,,,,,,,,,,,,,,,,,,,,,,,,,,,,,,,,,,,,clips/clip_claude_03_nosub_1.mp4,audios/clip_claude_03_nosub_1.mp3,audiovisual,683.3569509000008,683.6843937000012,683.8857797000019,683.8857797000019,683.8846221666684,695.6870955999984,695.4034907999994,695.4039040999996,[5.114528899997822],695.5505306999985,695.5506716999989,None,695.5507464000002,695.5507925999991,None,,,,,,,,,,,,,,330,001,2026-04-01_17h02.24.331,exp_sofc,,2025.2.3,59.91170213366873,2026-04-01 17h02.26.158194 +0200,
,36,0,36,,,,,,,,,,,,,,,,,,,,,,None,None,,,,,,,,,,,36,0,36,0,695.6870955999984,,,,,,,,,,,,,,,,,,,,,,,,,,,,,,,,,,,,,,,,,,,,,,,clips/clip_hund_15_sub_1.mp4,audios/silence.mp3,visual,695.6835668999993,696.0555759999988,696.2647087000005,696.2647087000005,696.2560436666683,707.0409564000001,697.5087080999983,706.7221976000001,[4.9015308000016375],706.8585477999986,706.8586472999996,None,706.8587340000013,706.8587831000004,None,,,,,,,,,,,,,,330,001,2026-04-01_17h02.24.331,exp_sofc,,2025.2.3,59.91170213366873,2026-04-01 17h02.26.158194 +0200,
,37,0,37,,,,,,,,,,,,,,,,,,,,,,None,None,,,,,,,,,,,37,0,37,0,707.0409564000001,,,,,,,,,,,,,,,,,,,,,,,,,,,,,,,,,,,,,,,,,,,,,,,clips/clip_hund_23_nosub_1.mp4,audios/clip_hund_23_nosub_1.mp3,audiovisual,707.0361637999995,707.3741881999995,707.5743122999993,707.5743122999993,707.5732375666669,718.7901684999997,718.7901684999997,718.4912957000015,[],718.621068299999,718.6211173000011,None,718.6211617000008,718.6211967000017,None,,,,,,,,,,,,,,330,001,2026-04-01_17h02.24.331,exp_sofc,,2025.2.3,59.91170213366873,2026-04-01 17h02.26.158194 +0200,
,38,0,38,,,,,,,,,,,,,,,,,,,,,,None,None,,,,,,,,,,,38,0,38,0,718.7901684999997,,,,,,,,,,,,,,,,,,,,,,,,,,,,,,,,,,,,,,,,,,,,,,,clips/clip_herz_01_nosub_1.mp4,audios/clip_herz_01_nosub_1.mp3,audiovisual,718.7859481999985,719.1332643999995,719.3338330000006,719.3338330000006,719.3337374666664,730.1990670000014,,729.9380039999996,[6.154714500000409],730.0611922999997,730.0613242,None,730.061418199999,730.061479,None,,,,,,,,,,,,,,330,001,2026-04-01_17h02.24.331,exp_sofc,,2025.2.3,59.91170213366873,2026-04-01 17h02.26.158194 +0200,
,39,0,39,,,,,,,,,,,,,,,,,,,,,,None,None,,,,,,,,,,,39,0,39,0,730.1990670000014,,,,,,,,,,,,,,,,,,,,,,,,,,,,,,,,,,,,,,,,,,,,,,,clips/clip_herz_03_nosub_2.mp4,audios/silence.mp3,visual,730.1953375000012,730.5686838000001,730.7702295000017,730.7702295000017,730.7678833666653,743.4838309000006,732.0118449000001,743.1715549,"[4.380235900000116, 11.330834500000492]",743.2932422000013,743.2933066000005,None,743.2933701000002,743.2934306999996,None,,,,,,,,,,,,,,330,001,2026-04-01_17h02.24.331,exp_sofc,,2025.2.3,59.91170213366873,2026-04-01 17h02.26.158194 +0200,
,40,0,40,,,,,,,,,,,,,,,,,,,,,,None,None,,,,,,,,,,,40,0,40,0,743.4838309000006,,,,,,,,,,,,,,,,,,,,,,,,,,,,,,,,,,,,,,,,,,,,,,,clips/clip_claude_25_sub_0.mp4,audios/clip_claude_25_sub_0.mp3,audiovisual,743.4796189000008,743.8021383000014,744.0035614000008,744.0035614000008,744.0027014666668,754.4567792000016,,754.1852024,[],754.3140893000018,754.3141657000015,None,754.314235400001,754.3142875999984,None,,,,,,,,,,,,,,330,001,2026-04-01_17h02.24.331,exp_sofc,,2025.2.3,59.91170213366873,2026-04-01 17h02.26.158194 +0200,
,41,0,41,,,,,,,,,,,,,,,,,,,,,,1,None,8.070917500001087,None,,,,,,,,,41,0,41,0,754.4567792000016,,,,,,,,,,,,,,,,,,,,,,,,,,,,,,,,,,,,,,,,,,,,,,,clips/clip_lied_04_nosub_0.mp4,audios/silence.mp3,visual,754.4533205000007,754.8195588999988,755.0232947000004,755.0232947000004,755.0197276666661,766.1471515999983,756.2711993000012,766.0031635000014,[],766.1405913999988,774.2254128999994,1,774.2255136999993,774.2255502000007,None,1,766.1471515999983,766.1471515999983,766.1471515999983,8.070917500001087,None,,,,,,,,330,001,2026-04-01_17h02.24.331,exp_sofc,,2025.2.3,59.91170213366873,2026-04-01 17h02.26.158194 +0200,
,42,0,42,,,,,,,,,,,,,,,,,,,,,,None,None,,,,,,,,,,,42,0,42,0,774.3957044999988,,,,,,,,,,,,,,,,,,,,,,,,,,,,,,,,,,,,,,,,,,,,,,,clips/clip_claude_16_nosub_1.mp4,audios/silence.mp3,visual,774.390344200001,774.7259110999985,774.9341692000016,774.9341692000016,774.9255879666673,786.4491577000008,776.1772763000008,786.1270932000007,[8.911158499999146],786.2655440000017,786.2655933999995,None,786.2656375000006,786.265666700001,None,,,,,,,,,,,,,,330,001,2026-04-01_17h02.24.331,exp_sofc,,2025.2.3,59.91170213366873,2026-04-01 17h02.26.158194 +0200,
,43,0,43,,,,,,,,,,,,,,,,,,,,,,None,None,,,,,,,,,,,43,0,43,0,786.4491577000008,,,,,,,,,,,,,,,,,,,,,,,,,,,,,,,,,,,,,,,,,,,,,,,clips/clip_herz_07_nosub_2.mp4,audios/clip_herz_07_nosub_2.mp3,audiovisual,786.4435472000005,786.7777997000012,786.9798154000018,786.9798154000018,786.9780471666675,799.2624135000005,799.2624135000005,798.9967938000009,[10.761500600001455],799.1141538000011,799.1142843999987,None,799.1143582000004,799.1143957999993,None,,,,,,,,,,,,,,330,001,2026-04-01_17h02.24.331,exp_sofc,,2025.2.3,59.91170213366873,2026-04-01 17h02.26.158194 +0200,
,44,0,44,,,,,,,,,,,,,,,,,,,,,,2,None,7.646169999999984,None,,,,,,,,,44,0,44,0,799.2624135000005,,,,,,,,,,,,,,,,,,,,,,,,,,,,,,,,,,,,,,,,,,,,,,,clips/clip_lied_03_sub_1.mp4,audios/silence.mp3,visual,799.259648700001,799.6139283999983,799.8168412999985,799.8168412999985,799.8147865666654,810.4761795999984,801.0660104000017,810.331992200001,[4.4833508000010625],810.4698451000004,818.1348601999998,2,818.1349617000014,818.1349980000014,None,2,810.4761795999984,810.4761795999984,810.4761795999984,7.646169999999984,None,,,,,,,,330,001,2026-04-01_17h02.24.331,exp_sofc,,2025.2.3,59.91170213366873,2026-04-01 17h02.26.158194 +0200,
,45,0,45,,,,,,,,,,,,,,,,,,,,,,None,None,,,,,,,,,,,45,0,45,0,818.3557598000007,,,,,,,,,,,,,,,,,,,,,,,,,,,,,,,,,,,,,,,,,,,,,,,clips/clip_weißt_07_nosub_1.mp4,audios/clip_weißt_07_nosub_1.mp3,audiovisual,818.3497925000011,818.6359369999991,818.8361164999988,818.8361164999988,818.8367661666673,828.8933283000006,828.5668466999996,828.5670667000013,[3.889239700001781],828.7011163999996,828.7011907999986,None,828.7012585999983,828.7013152,None,,,,,,,,,,,,,,330,001,2026-04-01_17h02.24.331,exp_sofc,,2025.2.3,59.91170213366873,2026-04-01 17h02.26.158194 +0200,
,46,0,46,,,,,,,,,,,,,,,,,,,,,,None,None,,,,,,,,,,,46,0,46,0,828.8933283000006,,,,,,,,,,,,,,,,,,,,,,,,,,,,,,,,,,,,,,,,,,,,,,,clips/clip_claude_13_sub_0.mp4,audios/clip_claude_13_sub_0.mp3,audiovisual,828.8887380999986,829.2012742000006,829.4032106999985,829.4032106999985,829.4016314666662,838.9659868999988,838.6331037999989,838.6336689999989,[],838.7733288000018,838.7734280000004,None,838.7735219999995,838.7735734999987,None,,,,,,,,,,,,,,330,001,2026-04-01_17h02.24.331,exp_sofc,,2025.2.3,59.91170213366873,2026-04-01 17h02.26.158194 +0200,
,47,0,47,,,,,,,,,,,,,,,,,,,,,,None,None,,,,,,,,,,,47,0,47,0,838.9659868999988,,,,,,,,,,,,,,,,,,,,,,,,,,,,,,,,,,,,,,,,,,,,,,,clips/clip_holo_05_nosub_2.mp4,audios/clip_holo_05_nosub_2.mp3,audiovisual,838.9618596,839.2839980999997,839.4860788000005,839.4860788000005,839.485245066666,848.9052303999997,848.6152165999993,848.6155002999985,[7.071702700002788],848.7534846999988,848.7535771000003,None,848.7536624999993,848.7537207999994,None,,,,,,,,,,,,,,330,001,2026-04-01_17h02.24.331,exp_sofc,,2025.2.3,59.91170213366873,2026-04-01 17h02.26.158194 +0200,
,48,0,48,,,,,,,,,,,,,,,,,,,,,,None,None,,,,,,,,,,,48,0,48,0,848.9052303999997,,,,,,,,,,,,,,,,,,,,,,,,,,,,,,,,,,,,,,,,,,,,,,,clips/clip_lied_07_sub_1.mp4,audios/silence.mp3,visual,848.9010266000005,849.2569785000014,849.4597073000004,849.4597073000004,849.4577498666661,858.7512121,850.7102529000003,858.4887856999994,[4.693505600000208],858.6223977000009,858.622482499999,None,858.6225396000009,858.6225967999999,None,,,,,,,,,,,,,,330,001,2026-04-01_17h02.24.331,exp_sofc,,2025.2.3,59.91170213366873,2026-04-01 17h02.26.158194 +0200,
,49,0,49,,,,,,,,,,,,,,,,,,,,,,None,None,,,,,,,,,,,49,0,49,0,858.7512121,,,,,,,,,,,,,,,,,,,,,,,,,,,,,,,,,,,,,,,,,,,,,,,clips/clip_hund_05_nosub_0.mp4,audios/silence.mp3,visual,858.7484011999986,859.1369215999985,859.3377867999989,859.3377867999989,859.3380207666671,870.6350134999993,860.5891340999988,870.3712148000013,[4.062617899999168],870.4978640000008,870.4979821000015,None,870.498066600001,870.4981039000013,None,,,,,,,,,,,,,,330,001,2026-04-01_17h02.24.331,exp_sofc,,2025.2.3,59.91170213366873,2026-04-01 17h02.26.158194 +0200,
,50,0,50,,,,,,,,,,,,,,,,,,,,,,None,None,,,,,,,,,,,50,0,50,0,870.6350134999993,,,,,,,,,,,,,,,,,,,,,,,,,,,,,,,,,,,,,,,,,,,,,,,clips/clip_holo_06_nosub_2.mp4,audios/silence.mp3,visual,870.6320976999996,871.0043310000001,871.2059288000019,871.2059288000019,871.2041249666656,881.2762819000018,872.4558187000002,880.9713196999983,"[4.990870999998151, 8.83042260000002]",881.1009378000017,881.1009946000013,None,881.1010470000001,881.1010858000009,None,,,,,,,,,,,,,,330,001,2026-04-01_17h02.24.331,exp_sofc,,2025.2.3,59.91170213366873,2026-04-01 17h02.26.158194 +0200,
,51,0,51,,,,,,,,,,,,,,,,,,,,,,None,None,,,,,,,,,,,51,0,51,0,881.2762819000018,,,,,,,,,,,,,,,,,,,,,,,,,,,,,,,,,,,,,,,,,,,,,,,clips/clip_herz_17_sub_0.mp4,audios/clip_herz_17_sub_0.mp3,audiovisual,881.2713898000002,881.6121543000008,881.8142598000013,881.8142598000013,881.8122487666662,890.2821313999993,,890.013988499999,[5.867017999997188],890.1437154999985,890.1437928999985,None,890.1438635000013,890.1439189000012,None,,,,,,,,,,,,,,330,001,2026-04-01_17h02.24.331,exp_sofc,,2025.2.3,59.91170213366873,2026-04-01 17h02.26.158194 +0200,
,52,0,52,,,,,,,,,,,,,,,,,,,,,,None,None,,,,,,,,,,,52,0,52,0,890.2821313999993,,,,,,,,,,,,,,,,,,,,,,,,,,,,,,,,,,,,,,,,,,,,,,,clips/clip_hund_08_nosub_1.mp4,audios/silence.mp3,visual,890.2786005000016,890.6598771999998,890.8596732000005,890.8442031999984,890.8430084666654,901.223700999999,892.094973700001,900.8752029999996,[],901.0171606000004,901.0172851999996,None,901.0173700999985,901.0174210000005,None,,,,,,,,,,,,,,330,001,2026-04-01_17h02.24.331,exp_sofc,,2025.2.3,59.91170213366873,2026-04-01 17h02.26.158194 +0200,
,53,0,53,,,,,,,,,,,,,,,,,,,,,,None,None,,,,,,,,,,,53,0,53,0,901.223700999999,,,,,,,,,,,,,,,,,,,,,,,,,,,,,,,,,,,,,,,,,,,,,,,clips/clip_holo_12_sub_1.mp4,audios/clip_holo_12_sub_1.mp3,audiovisual,901.2185261000013,901.5190446999986,901.7182288000004,901.7182288000004,901.7184719666659,912.0523633000012,911.7502228999983,911.7505085000012,[8.37027390000003],911.8986457999999,911.8987140999998,None,911.8987764999983,911.8988071999993,None,,,,,,,,,,,,,,330,001,2026-04-01_17h02.24.331,exp_sofc,,2025.2.3,59.91170213366873,2026-04-01 17h02.26.158194 +0200,
,54,0,54,,,,,,,,,,,,,,,,,,,,,,3,None,3.1545464000009815,None,,,,,,,,,54,0,54,0,912.0523633000012,,,,,,,,,,,,,,,,,,,,,,,,,,,,,,,,,,,,,,,,,,,,,,,clips/clip_wurst_17_sub_0.mp4,audios/silence.mp3,visual,912.0479884999986,912.4095621000015,912.6114675999997,912.6114675999997,912.6098068666654,920.8010484000006,913.8621572000011,920.6392453000008,[],920.7955724999993,923.9571958999986,3,923.9572943999992,923.9573320000018,None,3,920.8010484000006,920.8010484000006,920.8010484000006,3.1545464000009815,None,,,,,,,,330,001,2026-04-01_17h02.24.331,exp_sofc,,2025.2.3,59.91170213366873,2026-04-01 17h02.26.158194 +0200,
,55,0,55,,,,,,,,,,,,,,,,,,,,,,None,None,,,,,,,,,,,55,0,55,0,924.1234839999997,,,,,,,,,,,,,,,,,,,,,,,,,,,,,,,,,,,,,,,,,,,,,,,clips/clip_wurst_29_sub_1.mp4,audios/silence.mp3,visual,924.1180830000012,924.4580029999997,924.6591688000008,924.6591688000008,924.6593734666678,936.9638381000004,925.9099228999985,936.6769342000007,[],936.8069218000019,936.8069829000015,None,936.8070350999988,936.8070660000012,None,,,,,,,,,,,,,,330,001,2026-04-01_17h02.24.331,exp_sofc,,2025.2.3,59.91170213366873,2026-04-01 17h02.26.158194 +0200,
,56,0,56,,,,,,,,,,,,,,,,,,,,,,None,None,,,,,,,,,,,56,0,56,0,936.9638381000004,,,,,,,,,,,,,,,,,,,,,,,,,,,,,,,,,,,,,,,,,,,,,,,clips/clip_wurst_18_sub_0.mp4,audios/silence.mp3,visual,936.9593142000012,937.3158402000008,937.5172272999989,937.5172272999989,937.5164579666673,947.8939945999991,938.7676343999992,947.5490920000011,[],947.6954344000005,947.6955333000005,None,947.6956238999992,947.6956811000018,None,,,,,,,,,,,,,,330,001,2026-04-01_17h02.24.331,exp_sofc,,2025.2.3,59.91170213366873,2026-04-01 17h02.26.158194 +0200,
,57,0,57,,,,,,,,,,,,,,,,,,,,,,None,None,,,,,,,,,,,57,0,57,0,947.8939945999991,,,,,,,,,,,,,,,,,,,,,,,,,,,,,,,,,,,,,,,,,,,,,,,clips/clip_holo_21_sub_1.mp4,audios/clip_holo_21_sub_1.mp3,audiovisual,947.8896118000011,948.2072579000014,948.4084333999999,948.4084333999999,948.4073338666678,958.8915935000005,,958.6086164000008,[9.139824600002612],958.7400113000003,958.7401172999998,None,958.7402011999984,958.7402586999997,None,,,,,,,,,,,,,,330,001,2026-04-01_17h02.24.331,exp_sofc,,2025.2.3,59.91170213366873,2026-04-01 17h02.26.158194 +0200,
,58,0,58,,,,,,,,,,,,,,,,,,,,,,None,None,,,,,,,,,,,58,0,58,0,958.8915935000005,,,,,,,,,,,,,,,,,,,,,,,,,,,,,,,,,,,,,,,,,,,,,,,clips/clip_holo_13_sub_1.mp4,audios/silence.mp3,visual,958.8865905999992,959.2432473000008,959.4481693000016,959.4481693000016,959.4432844666665,971.5351014000007,960.6955916000006,971.2621715999994,[4.325077000001329],971.3922587999987,971.3923763999992,None,971.3925075000006,971.3925748000001,None,,,,,,,,,,,,,,330,001,2026-04-01_17h02.24.331,exp_sofc,,2025.2.3,59.91170213366873,2026-04-01 17h02.26.158194 +0200,
,59,0,59,,,,,,,,,,,,,,,,,,,,,,None,None,,,,,,,,,,,59,0,59,0,971.5351014000007,,,,,,,,,,,,,,,,,,,,,,,,,,,,,,,,,,,,,,,,,,,,,,,clips/clip_lied_01_sub_1.mp4,audios/silence.mp3,visual,971.5320642000006,971.8978019999995,972.0978551000007,972.0978551000007,972.0979141666651,982.272191600001,973.3487520999988,982.1291168999996,[5.132845399999496],982.260162300001,982.2602417999988,None,982.260336899999,1102.2763114000008,None,,,,,,,982.272191600001,982.272191600001,982.272191600001,1102.2759951000007,1102.2759951000007,,,330,001,2026-04-01_17h02.24.331,exp_sofc,,2025.2.3,59.91170213366873,2026-04-01 17h02.26.158194 +0200,
,60,0,60,,,,,,,,,,,,,,,,,,,,,,None,None,,,,,,,,,,,60,0,60,0,1102.430150799999,,,,,,,,,,,,,,,,,,,,,,,,,,,,,,,,,,,,,,,,,,,,,,,clips/clip_wurst_23_nosub_2.mp4,audios/silence.mp3,visual,1102.4263202000002,1102.7860333999997,1102.9855764999993,1102.9855764999993,1102.9858186666681,1113.786727499999,1104.2374391999983,1113.5201742999998,"[3.4786738000002515, 7.807732499997655]",1113.6502647999987,1113.6505491999997,None,1113.6506095000004,1113.6506483000012,None,,,,,,,,,,,,,,330,001,2026-04-01_17h02.24.331,exp_sofc,,2025.2.3,59.91170213366873,2026-04-01 17h02.26.158194 +0200,
,61,0,61,,,,,,,,,,,,,,,,,,,,,,None,None,,,,,,,,,,,61,0,61,0,1113.786727499999,,,,,,,,,,,,,,,,,,,,,,,,,,,,,,,,,,,,,,,,,,,,,,,clips/clip_claude_23_nosub_0.mp4,audios/silence.mp3,visual,1113.7831179999994,1114.1529219000004,1114.3657882000007,1114.3657882000007,1114.3531718666675,1126.8043668999999,1115.6049232000005,1126.5059035999984,[],1126.6278678000017,1126.627934799999,None,1126.6280441000017,1126.6281065000003,None,,,,,,,,,,,,,,330,001,2026-04-01_17h02.24.331,exp_sofc,,2025.2.3,59.91170213366873,2026-04-01 17h02.26.158194 +0200,
,62,0,62,,,,,,,,,,,,,,,,,,,,,,2,None,5.490363400000206,None,,,,,,,,,62,0,62,0,1126.8043668999999,,,,,,,,,,,,,,,,,,,,,,,,,,,,,,,,,,,,,,,,,,,,,,,clips/clip_claude_26_nosub_0.mp4,audios/clip_claude_26_nosub_0.mp3,audiovisual,1126.8002543000002,1127.1315953999983,1127.3349359999993,1127.3349359999993,1127.3319306666674,1138.3909540999994,1138.2488128000005,1138.2491011999991,[4.141325599997799],1138.3854022999985,1143.8827428000004,2,1143.8828407,1143.8828782000019,None,2,1138.3909540999994,1138.3909540999994,1138.3909540999994,5.490363400000206,None,,,,,,,,330,001,2026-04-01_17h02.24.331,exp_sofc,,2025.2.3,59.91170213366873,2026-04-01 17h02.26.158194 +0200,
,63,0,63,,,,,,,,,,,,,,,,,,,,,,None,None,,,,,,,,,,,63,0,63,0,1144.0535659000016,,,,,,,,,,,,,,,,,,,,,,,,,,,,,,,,,,,,,,,,,,,,,,,clips/clip_lied_14_nosub_0.mp4,audios/silence.mp3,visual,1144.048367200001,1144.3845422999984,1144.5844725999996,1144.5844725999996,1144.5839124666675,1154.5893445000002,1145.8349982,1154.2819836999988,[],1154.4070726999998,1154.4071459000006,None,1154.4072080000005,1154.4072560999994,None,,,,,,,,,,,,,,330,001,2026-04-01_17h02.24.331,exp_sofc,,2025.2.3,59.91170213366873,2026-04-01 17h02.26.158194 +0200,
,64,0,64,,,,,,,,,,,,,,,,,,,,,,None,None,,,,,,,,,,,64,0,64,0,1154.5893445000002,,,,,,,,,,,,,,,,,,,,,,,,,,,,,,,,,,,,,,,,,,,,,,,clips/clip_wurst_06_sub_2.mp4,audios/clip_wurst_06_sub_2.mp3,audiovisual,1154.5848760000008,1154.909610499999,1155.1099084999987,1155.1099084999987,1155.1088869666676,1166.5473625000013,1166.2101121999985,1166.2105811000001,"[3.0364387999979954, 8.326224799999181]",1166.3430308999996,1166.3431314000009,None,1166.3432227999983,1166.3432730999994,None,,,,,,,,,,,,,,330,001,2026-04-01_17h02.24.331,exp_sofc,,2025.2.3,59.91170213366873,2026-04-01 17h02.26.158194 +0200,
,65,0,65,,,,,,,,,,,,,,,,,,,,,,None,None,,,,,,,,,,,65,0,65,0,1166.5473625000013,,,,,,,,,,,,,,,,,,,,,,,,,,,,,,,,,,,,,,,,,,,,,,,clips/clip_herz_05_nosub_0.mp4,audios/clip_herz_05_nosub_0.mp3,audiovisual,1166.5432118999997,1166.8498498000008,1167.0508449000008,1167.0508449000008,1167.049920966667,1177.648438100001,,1177.3499372000006,"[6.1319159000013315, 7.307236299999204]",1177.508420099999,1177.5084707999995,None,1177.5085161999996,1177.5085498000008,None,,,,,,,,,,,,,,330,001,2026-04-01_17h02.24.331,exp_sofc,,2025.2.3,59.91170213366873,2026-04-01 17h02.26.158194 +0200,
,66,0,66,,,,,,,,,,,,,,,,,,,,,,None,None,,,,,,,,,,,66,0,66,0,1177.648438100001,,,,,,,,,,,,,,,,,,,,,,,,,,,,,,,,,,,,,,,,,,,,,,,clips/clip_claude_02_nosub_1.mp4,audios/silence.mp3,visual,1177.6450459000007,1178.0084941999994,1178.2124498999983,1178.2124498999983,1178.2081158666663,1188.299426900001,1179.4599750999987,1188.0075195999998,[5.720680899998115],1188.148816500001,1188.148892199999,None,1188.1489650000003,1188.1490067000013,None,,,,,,,,,,,,,,330,001,2026-04-01_17h02.24.331,exp_sofc,,2025.2.3,59.91170213366873,2026-04-01 17h02.26.158194 +0200,
,67,0,67,,,,,,,,,,,,,,,,,,,,,,3,None,7.410249399999884,None,,,,,,,,,67,0,67,0,1188.299426900001,,,,,,,,,,,,,,,,,,,,,,,,,,,,,,,,,,,,,,,,,,,,,,,clips/clip_claude_20_nosub_1.mp4,audios/silence.mp3,visual,1188.2963267999985,1188.6505073000008,1188.850257099999,1188.850257099999,1188.851025666667,1201.0346314000017,1190.101512199999,1200.8686486000006,[6.372486399999616],1201.029129800001,1208.4488772000004,3,1208.449008399999,1208.4490688000005,None,3,1201.0346314000017,1201.0346314000017,1201.0346314000017,7.410249399999884,None,,,,,,,,330,001,2026-04-01_17h02.24.331,exp_sofc,,2025.2.3,59.91170213366873,2026-04-01 17h02.26.158194 +0200,
,68,0,68,,,,,,,,,,,,,,,,,,,,,,None,None,,,,,,,,,,,68,0,68,0,1208.6568622999985,,,,,,,,,,,,,,,,,,,,,,,,,,,,,,,,,,,,,,,,,,,,,,,clips/clip_herz_02_nosub_0.mp4,audios/clip_herz_02_nosub_0.mp3,audiovisual,1208.6501509000009,1208.9593299000007,1209.1588611000006,1209.1588611000006,1209.1597385666685,1221.8610626000009,1221.8610626000009,1221.5678936000004,[9.051393199999438],1221.6842542000013,1221.6843087000016,None,1221.6843498999988,1221.684377900001,None,,,,,,,,,,,,,,330,001,2026-04-01_17h02.24.331,exp_sofc,,2025.2.3,59.91170213366873,2026-04-01 17h02.26.158194 +0200,
,69,0,69,,,,,,,,,,,,,,,,,,,,,,None,None,,,,,,,,,,,69,0,69,0,1221.8610626000009,,,,,,,,,,,,,,,,,,,,,,,,,,,,,,,,,,,,,,,,,,,,,,,clips/clip_hund_16_sub_1.mp4,audios/clip_hund_16_sub_1.mp3,audiovisual,1221.8561541000017,1222.1869652999994,1222.3882378000017,1222.3882378000017,1222.3878549666663,1233.5002189000006,,1233.2378868999986,[],1233.3645800000013,1233.3646294999999,None,1233.3646743999998,1233.3647047000013,None,,,,,,,,,,,,,,330,001,2026-04-01_17h02.24.331,exp_sofc,,2025.2.3,59.91170213366873,2026-04-01 17h02.26.158194 +0200,
,70,0,70,,,,,,,,,,,,,,,,,,,,,,2,None,3.158471599999757,None,,,,,,,,,70,0,70,0,1233.5002189000006,,,,,,,,,,,,,,,,,,,,,,,,,,,,,,,,,,,,,,,,,,,,,,,clips/clip_hund_22_sub_1.mp4,audios/silence.mp3,visual,1233.4963291999993,1233.8691160999988,1234.0704796999999,1234.0704796999999,1234.069789266665,1244.225903999999,1235.321003699999,1244.0947772,[8.691935400001967],1244.2203136999997,1247.3990126999997,2,1247.3991066999988,1247.3991424999986,None,2,1244.225903999999,1244.225903999999,1244.225903999999,3.158471599999757,None,,,,,,,,330,001,2026-04-01_17h02.24.331,exp_sofc,,2025.2.3,59.91170213366873,2026-04-01 17h02.26.158194 +0200,
,71,0,71,,,,,,,,,,,,,,,,,,,,,,None,None,,,,,,,,,,,71,0,71,0,1247.5472928000017,,,,,,,,,,,,,,,,,,,,,,,,,,,,,,,,,,,,,,,,,,,,,,,clips/clip_wurst_16_sub_0.mp4,audios/silence.mp3,visual,1247.5435503000008,1247.9080986000008,1248.1094214000004,1248.1094214000004,1248.1083913666664,1258.4428995000017,1249.3597661999993,1258.1407359000004,[],1258.2696732000004,1258.2697227999997,None,1258.2697666999993,1258.2698019000018,None,,,,,,,,,,,,,,330,001,2026-04-01_17h02.24.331,exp_sofc,,2025.2.3,59.91170213366873,2026-04-01 17h02.26.158194 +0200,
,72,0,72,,,,,,,,,,,,,,,,,,,,,,None,None,,,,,,,,,,,72,0,72,0,1258.4428995000017,,,,,,,,,,,,,,,,,,,,,,,,,,,,,,,,,,,,,,,,,,,,,,,clips/clip_holo_14_nosub_0.mp4,audios/clip_holo_14_nosub_0.mp3,audiovisual,1258.4384194000013,1258.7841098999997,1258.9998473999985,1258.9866623999987,1258.9830576666684,1269.2826408,1269.0152970999989,1269.0156177999997,[],1269.1513062999984,1269.1513809999997,None,1269.1514564999998,1269.1515708000006,None,,,,,,,,,,,,,,330,001,2026-04-01_17h02.24.331,exp_sofc,,2025.2.3,59.91170213366873,2026-04-01 17h02.26.158194 +0200,
,73,0,73,,,,,,,,,,,,,,,,,,,,,,1,None,4.242555400000128,None,,,,,,,,,73,0,73,0,1269.2826408,,,,,,,,,,,,,,,,,,,,,,,,,,,,,,,,,,,,,,,,,,,,,,,clips/clip_lied_19_nosub_1.mp4,audios/silence.mp3,visual,1269.2794652000011,1269.6497310999985,1269.8525709999994,1269.8525709999994,1269.8510932666652,1280.6963662999988,1271.1020371000013,1280.5502173999994,[9.358001399999921],1280.6902493000016,1284.9489433999988,1,1284.9490349000007,1284.9490705999997,None,1,1280.6963662999988,1280.6963662999988,1280.6963662999988,4.242555400000128,None,,,,,,,,330,001,2026-04-01_17h02.24.331,exp_sofc,,2025.2.3,59.91170213366873,2026-04-01 17h02.26.158194 +0200,
,74,0,74,,,,,,,,,,,,,,,,,,,,,,None,None,,,,,,,,,,,74,0,74,0,1285.1292614000013,,,,,,,,,,,,,,,,,,,,,,,,,,,,,,,,,,,,,,,,,,,,,,,clips/clip_hund_11_sub_1.mp4,audios/clip_hund_11_sub_1.mp3,audiovisual,1285.1227952000008,1285.4507090000006,1285.6505557000019,1285.6505557000019,1285.6499210666664,1295.6972232000007,1295.3816035000018,1295.382020000001,[6.575917799997114],1295.4968542999995,1295.496964599999,None,1295.4970496999995,1295.497103900001,None,,,,,,,,,,,,,,330,001,2026-04-01_17h02.24.331,exp_sofc,,2025.2.3,59.91170213366873,2026-04-01 17h02.26.158194 +0200,
,75,0,75,,,,,,,,,,,,,,,,,,,,,,4,None,17.441572600000654,None,,,,,,,,,75,0,75,0,1295.6972232000007,,,,,,,,,,,,,,,,,,,,,,,,,,,,,,,,,,,,,,,,,,,,,,,clips/clip_lied_11_sub_1.mp4,audios/clip_lied_11_sub_1.mp3,audiovisual,1295.6926418000003,1295.999353700001,1296.202431400001,1296.202431400001,1296.1989283666665,1307.4336891999992,,1307.2837424999998,[8.051386200000707],1307.4274622000012,1324.8861015000002,4,1324.8862445000013,1324.886310400001,None,4,1307.4336891999992,1307.4336891999992,1307.4336891999992,17.441572600000654,None,,,,,,,,330,001,2026-04-01_17h02.24.331,exp_sofc,,2025.2.3,59.91170213366873,2026-04-01 17h02.26.158194 +0200,
,76,0,76,,,,,,,,,,,,,,,,,,,,,,None,None,,,,,,,,,,,76,0,76,0,1325.062285,,,,,,,,,,,,,,,,,,,,,,,,,,,,,,,,,,,,,,,,,,,,,,,clips/clip_claude_14_sub_0.mp4,audios/silence.mp3,visual,1325.0572137000017,1325.3873625000015,1325.5895735999984,1325.5895735999984,1325.586443166667,1337.0191225000017,1326.838066100001,1336.6879866999989,[3.424938000000111],1336.8310114999986,1336.831078700001,None,1336.8311318999986,1336.8311615999992,None,,,,,,,,,,,,,,330,001,2026-04-01_17h02.24.331,exp_sofc,,2025.2.3,59.91170213366873,2026-04-01 17h02.26.158194 +0200,
,77,0,77,,,,,,,,,,,,,,,,,,,,,,None,None,,,,,,,,,,,77,0,77,0,1337.0191225000017,,,,,,,,,,,,,,,,,,,,,,,,,,,,,,,,,,,,,,,,,,,,,,,clips/clip_hund_10_nosub_0.mp4,audios/clip_hund_10_nosub_0.mp3,audiovisual,1337.0144892999997,1337.3410790000016,1337.5548500000004,1337.5405963000012,1337.5393035666677,1347.2893541999983,1347.0697971000009,1347.0701415000003,"[1.0195472999985213, 8.703714899998886]",1347.1624201999985,1347.1624912000007,None,1347.1625606999987,1347.1626077,None,,,,,,,,,,,,,,330,001,2026-04-01_17h02.24.331,exp_sofc,,2025.2.3,59.91170213366873,2026-04-01 17h02.26.158194 +0200,
,78,0,78,,,,,,,,,,,,,,,,,,,,,,1,None,5.64596739999979,None,,,,,,,,,78,0,78,0,1347.2893541999983,,,,,,,,,,,,,,,,,,,,,,,,,,,,,,,,,,,,,,,,,,,,,,,clips/clip_holo_17_sub_0.mp4,audios/silence.mp3,visual,1347.286273900001,1347.6713834000002,1347.8722135999997,1347.8722135999997,1347.8726740666682,1357.8545937000017,1349.1228634,1357.7029289999991,[],1357.849796300001,1363.5046188000015,1,1363.5047139999988,1363.5047513999998,None,1,1357.8545937000017,1357.8545937000017,1357.8545937000017,5.64596739999979,None,,,,,,,,330,001,2026-04-01_17h02.24.331,exp_sofc,,2025.2.3,59.91170213366873,2026-04-01 17h02.26.158194 +0200,
,79,0,79,,,,,,,,,,,,,,,,,,,,,,None,None,,,,,,,,,,,79,0,79,0,1363.6686660999985,,,,,,,,,,,,,,,,,,,,,,,,,,,,,,,,,,,,,,,,,,,,,,,clips/clip_weißt_27_nosub_1.mp4,audios/silence.mp3,visual,1363.6630619999996,1364.0035239999997,1364.2052645000003,1364.2052645000003,1364.2049543666656,1374.5600196999985,1365.4559081000007,1374.2863534999997,[7.860511599999882],1374.418147100001,1374.4182231999985,None,1374.4182967999986,1374.4183430999983,None,,,,,,,,,,,,,,330,001,2026-04-01_17h02.24.331,exp_sofc,,2025.2.3,59.91170213366873,2026-04-01 17h02.26.158194 +0200,
,80,0,80,,,,,,,,,,,,,,,,,,,,,,None,None,,,,,,,,,,,80,0,80,0,1374.5600196999985,,,,,,,,,,,,,,,,,,,,,,,,,,,,,,,,,,,,,,,,,,,,,,,clips/clip_wurst_04_sub_2.mp4,audios/silence.mp3,visual,1374.5556373,1374.9204262999992,1375.1273254000007,1375.1273254000007,1375.1209992666666,1387.0630649000013,1376.3726850999992,1386.7397157999985,[4.22711580000032],1386.8629426000007,1386.863005700001,None,1386.8630684000018,1386.863115600001,None,,,,,,,,,,,,,,330,001,2026-04-01_17h02.24.331,exp_sofc,,2025.2.3,59.91170213366873,2026-04-01 17h02.26.158194 +0200,
,81,0,81,,,,,,,,,,,,,,,,,,,,,,None,None,,,,,,,,,,,81,0,81,0,1387.0630649000013,,,,,,,,,,,,,,,,,,,,,,,,,,,,,,,,,,,,,,,,,,,,,,,clips/clip_wurst_03_sub_1.mp4,audios/clip_wurst_03_sub_1.mp3,audiovisual,1387.0583944999998,1387.3729706999984,1387.5758401999992,1387.5758401999992,1387.574483466666,1399.782269700001,,1399.4948210000002,[4.434196599999268],1399.6127549000012,1399.6128095999993,None,1399.6128831999995,1399.6129216000008,None,,,,,,,,,,,,,,330,001,2026-04-01_17h02.24.331,exp_sofc,,2025.2.3,59.91170213366873,2026-04-01 17h02.26.158194 +0200,
,82,0,82,,,,,,,,,,,,,,,,,,,,,,None,None,,,,,,,,,,,82,0,82,0,1399.782269700001,,,,,,,,,,,,,,,,,,,,,,,,,,,,,,,,,,,,,,,,,,,,,,,clips/clip_weißt_28_sub_1.mp4,audios/clip_weißt_28_sub_1.mp3,audiovisual,1399.7772652999993,1400.1175487,1400.3191408999992,1400.3191408999992,1400.3176153666684,1410.7341949000001,1410.4159187000005,1410.4161832999998,"[2.1031034999978147, 6.837628699999186]",1410.5461359,1410.5462422000019,None,1410.5464310999996,1410.5464952000002,None,,,,,,,,,,,,,,330,001,2026-04-01_17h02.24.331,exp_sofc,,2025.2.3,59.91170213366873,2026-04-01 17h02.26.158194 +0200,
,83,0,83,,,,,,,,,,,,,,,,,,,,,,None,None,,,,,,,,,,,83,0,83,0,1410.7341949000001,,,,,,,,,,,,,,,,,,,,,,,,,,,,,,,,,,,,,,,,,,,,,,,clips/clip_herz_13_nosub_0.mp4,audios/clip_herz_13_nosub_0.mp3,audiovisual,1410.7294355000013,1411.0510341000008,1411.2509425999997,1411.2509425999997,1411.2512311666653,1422.7216456999995,,1422.4584308000012,[7.73646639999788],1422.579536000001,1422.5796011999992,None,1422.5796762999998,1422.5797413,None,,,,,,,,,,,,,,330,001,2026-04-01_17h02.24.331,exp_sofc,,2025.2.3,59.91170213366873,2026-04-01 17h02.26.158194 +0200,
,84,0,84,,,,,,,,,,,,,,,,,,,,,,None,None,,,,,,,,,,,84,0,84,0,1422.7216456999995,,,,,,,,,,,,,,,,,,,,,,,,,,,,,,,,,,,,,,,,,,,,,,,clips/clip_hund_14_nosub_2.mp4,audios/silence.mp3,visual,1422.7184425999985,1423.0869860999992,1423.2867649,1423.2867649,1423.2870093666681,1433.4811922000008,1424.5378740999986,1433.1848597999997,[5.879629099999875],1433.305977,1433.3060527000016,None,1433.306158200001,1433.3062224999994,None,,,,,,,,,,,,,,330,001,2026-04-01_17h02.24.331,exp_sofc,,2025.2.3,59.91170213366873,2026-04-01 17h02.26.158194 +0200,
,85,0,85,,,,,,,,,,,,,,,,,,,,,,None,None,,,,,,,,,,,85,0,85,0,1433.4811922000008,,,,,,,,,,,,,,,,,,,,,,,,,,,,,,,,,,,,,,,,,,,,,,,clips/clip_wurst_35_nosub_0.mp4,audios/clip_wurst_35_nosub_0.mp3,audiovisual,1433.4767360000005,1433.811348700001,1434.0133215999995,1434.0133215999995,1434.0117643666674,1443.588080900001,,1443.3154452999988,[],1443.4385427000016,1443.4386156,None,1443.4387224999991,1443.4387926999989,None,,,,,,,,,,,,,,330,001,2026-04-01_17h02.24.331,exp_sofc,,2025.2.3,59.91170213366873,2026-04-01 17h02.26.158194 +0200,
,86,0,86,,,,,,,,,,,,,,,,,,,,,,None,None,,,,,,,,,,,86,0,86,0,1443.588080900001,,,,,,,,,,,,,,,,,,,,,,,,,,,,,,,,,,,,,,,,,,,,,,,clips/clip_holo_03_sub_1.mp4,audios/silence.mp3,visual,1443.5848326000014,1443.9438522000019,1444.1494563999986,1444.1494563999986,1444.1441941666674,1453.9540807999983,1445.395595599999,1453.6753319000018,[7.462529399999767],1453.7828549000005,1453.7829214999983,None,1453.7829883000013,1453.7830414000018,None,,,,,,,,,,,,,,330,001,2026-04-01_17h02.24.331,exp_sofc,,2025.2.3,59.91170213366873,2026-04-01 17h02.26.158194 +0200,
,87,0,87,,,,,,,,,,,,,,,,,,,,,,None,None,,,,,,,,,,,87,0,87,0,1453.9540807999983,,,,,,,,,,,,,,,,,,,,,,,,,,,,,,,,,,,,,,,,,,,,,,,clips/clip_hund_30_nosub_0.mp4,audios/clip_hund_30_nosub_0.mp3,audiovisual,1453.949805100001,1454.2931848000007,1454.4939894000017,1454.4939894000017,1454.4928043666662,1466.7893592,1466.7893592,1466.5119476,[],1466.6385950000004,1466.6386870999995,None,1466.638745799999,1466.6387832,None,,,,,,,,,,,,,,330,001,2026-04-01_17h02.24.331,exp_sofc,,2025.2.3,59.91170213366873,2026-04-01 17h02.26.158194 +0200,
,88,0,88,,,,,,,,,,,,,,,,,,,,,,None,None,,,,,,,,,,,88,0,88,0,1466.7893592,,,,,,,,,,,,,,,,,,,,,,,,,,,,,,,,,,,,,,,,,,,,,,,clips/clip_wurst_36_sub_0.mp4,audios/silence.mp3,visual,1466.7849983000015,1467.1468348999988,1467.3498304999994,1467.3498304999994,1467.3471134666654,1477.5079622000012,1468.5985547000018,1477.2127269999983,[],1477.3477434000015,1477.3478184999985,None,1477.3479114000002,1477.3479622000013,None,,,,,,,,,,,,,,330,001,2026-04-01_17h02.24.331,exp_sofc,,2025.2.3,59.91170213366873,2026-04-01 17h02.26.158194 +0200,
,89,0,89,,,,,,,,,,,,,,,,,,,,,,None,None,,,,,,,,,,,89,0,89,0,1477.5079622000012,,,,,,,,,,,,,,,,,,,,,,,,,,,,,,,,,,,,,,,,,,,,,,,clips/clip_herz_14_nosub_0.mp4,audios/silence.mp3,visual,1477.5037908000013,1477.8541002999991,1478.0583697000002,1478.0583697000002,1478.054895966667,1488.9034733000008,1479.3063748999994,1488.5888004000008,[],1488.716642899999,1488.7166909000007,None,1488.7167364000015,1488.7167660999985,None,,,,,,,,,,,,,,330,001,2026-04-01_17h02.24.331,exp_sofc,,2025.2.3,59.91170213366873,2026-04-01 17h02.26.158194 +0200,
,90,0,90,,,,,,,,,,,,,,,,,,,,,,None,None,,,,,,,,,,,90,0,90,0,1488.9034733000008,,,,,,,,,,,,,,,,,,,,,,,,,,,,,,,,,,,,,,,,,,,,,,,clips/clip_hund_07_nosub_1.mp4,audios/clip_hund_07_nosub_1.mp3,audiovisual,1488.8981781000002,1489.2212153,1489.425672199999,1489.425672199999,1489.4221746666665,1501.3582934000005,1501.3582934000005,1501.0404667000003,[6.601018700002896],1501.1743204000013,1501.1743833,None,1501.174444100001,1501.1744866000008,None,,,,,,,,,,,,,,330,001,2026-04-01_17h02.24.331,exp_sofc,,2025.2.3,59.91170213366873,2026-04-01 17h02.26.158194 +0200,
,91,0,91,,,,,,,,,,,,,,,,,,,,,,None,None,,,,,,,,,,,91,0,91,0,1501.3582934000005,,,,,,,,,,,,,,,,,,,,,,,,,,,,,,,,,,,,,,,,,,,,,,,clips/clip_holo_10_nosub_1.mp4,audios/clip_holo_10_nosub_1.mp3,audiovisual,1501.3541326999984,1501.6738508999988,1501.874730200001,1501.874730200001,1501.875307866667,1512.092687100001,1511.8405096999995,1511.840914100001,[7.332342699999572],1511.9504105000015,1511.9505110999999,None,1511.9505972000006,1511.9506497000002,None,,,,,,,,,,,,,,330,001,2026-04-01_17h02.24.331,exp_sofc,,2025.2.3,59.91170213366873,2026-04-01 17h02.26.158194 +0200,
,92,0,92,,,,,,,,,,,,,,,,,,,,,,None,None,,,,,,,,,,,92,0,92,0,1512.092687100001,,,,,,,,,,,,,,,,,,,,,,,,,,,,,,,,,,,,,,,,,,,,,,,clips/clip_lied_06_sub_1.mp4,audios/silence.mp3,visual,1512.0893087000004,1512.4669170000016,1512.665954600001,1512.651980300001,1512.6502668666656,1525.567577599999,1513.9022184999994,1525.2689384000005,[],1525.4024003000013,1525.4024754999991,None,1525.4025751000008,1525.4026373000015,None,,,,,,,,,,,,,,330,001,2026-04-01_17h02.24.331,exp_sofc,,2025.2.3,59.91170213366873,2026-04-01 17h02.26.158194 +0200,
,93,0,93,,,,,,,,,,,,,,,,,,,,,,None,None,,,,,,,,,,,93,0,93,0,1525.567577599999,,,,,,,,,,,,,,,,,,,,,,,,,,,,,,,,,,,,,,,,,,,,,,,clips/clip_claude_12_nosub_0.mp4,audios/clip_claude_12_nosub_0.mp3,audiovisual,1525.563264100001,1525.9120229,1526.1182069999995,1526.1182069999995,1526.1122414666681,1535.5950383000018,1535.3427474000018,1535.343112300001,[],1535.4671697000013,1535.4672535999998,None,1535.4673360000015,1535.4673952000012,None,,,,,,,,,,,,,,330,001,2026-04-01_17h02.24.331,exp_sofc,,2025.2.3,59.91170213366873,2026-04-01 17h02.26.158194 +0200,
,94,0,94,,,,,,,,,,,,,,,,,,,,,,None,None,,,,,,,,,,,94,0,94,0,1535.5950383000018,,,,,,,,,,,,,,,,,,,,,,,,,,,,,,,,,,,,,,,,,,,,,,,clips/clip_hund_34_sub_1.mp4,audios/silence.mp3,visual,1535.5918075000009,1535.9692523000012,1536.1691084999984,1536.1691084999984,1536.169299166668,1546.8761747999997,1537.4209171000002,1546.6028522000015,[],1546.718909700001,1546.7189866000008,None,1546.7190855000008,1546.7191429000013,None,,,,,,,,,,,,,,330,001,2026-04-01_17h02.24.331,exp_sofc,,2025.2.3,59.91170213366873,2026-04-01 17h02.26.158194 +0200,
,95,0,95,,,,,,,,,,,,,,,,,,,,,,None,None,,,,,,,,,,,95,0,95,0,1546.8761747999997,,,,,,,,,,,,,,,,,,,,,,,,,,,,,,,,,,,,,,,,,,,,,,,clips/clip_wurst_21_nosub_0.mp4,audios/clip_wurst_21_nosub_0.mp3,audiovisual,1546.8717252999995,1547.2192118999992,1547.4223839000006,1547.4223839000006,1547.4207437666666,1558.2528482000016,1557.9534650999994,1557.953880500001,[],1558.0877708000007,1558.0878440999986,None,1558.0879147000014,1558.0879620000014,None,,,,,,,,,,,,,,330,001,2026-04-01_17h02.24.331,exp_sofc,,2025.2.3,59.91170213366873,2026-04-01 17h02.26.158194 +0200,
,96,0,96,,,,,,,,,,,,,,,,,,,,,,None,None,,,,,,,,,,,96,0,96,0,1558.2528482000016,,,,,,,,,,,,,,,,,,,,,,,,,,,,,,,,,,,,,,,,,,,,,,,clips/clip_holo_11_sub_2.mp4,audios/clip_holo_11_sub_2.mp3,audiovisual,1558.2483119999997,1558.5985099999998,1558.7964777000016,1558.7964777000016,1558.7989119666674,1568.7412971999984,1568.460996599999,1568.4613391999992,[5.5279035000021395],1568.605872799999,1568.6059504000004,None,1568.6060246000015,1568.6060780000007,None,,,,,,,,,,,,,,330,001,2026-04-01_17h02.24.331,exp_sofc,,2025.2.3,59.91170213366873,2026-04-01 17h02.26.158194 +0200,
,97,0,97,,,,,,,,,,,,,,,,,,,,,,None,None,,,,,,,,,,,97,0,97,0,1568.7412971999984,,,,,,,,,,,,,,,,,,,,,,,,,,,,,,,,,,,,,,,,,,,,,,,clips/clip_lied_15_nosub_2.mp4,audios/silence.mp3,visual,1568.7374447000002,1569.1127075000004,1569.3154304000018,1569.3154304000018,1569.312189266668,1576.8984218000005,1570.5648766000013,1576.640733600001,"[3.1574344000000565, 7.1654870999991545]",1576.7636115999994,1576.7636598999998,None,1576.763704699999,1576.7638101999983,None,,,,,,,,,,,,,,330,001,2026-04-01_17h02.24.331,exp_sofc,,2025.2.3,59.91170213366873,2026-04-01 17h02.26.158194 +0200,
,98,0,98,,,,,,,,,,,,,,,,,,,,,,None,None,,,,,,,,,,,98,0,98,0,1576.8984218000005,,,,,,,,,,,,,,,,,,,,,,,,,,,,,,,,,,,,,,,,,,,,,,,clips/clip_weißt_30_sub_2.mp4,audios/silence.mp3,visual,1576.8945811000012,1577.2668320999983,1577.4723274999997,1577.4723274999997,1577.4669826666652,1589.7925840999997,1578.7190191000009,1589.4859436000006,"[3.2995879000009154, 12.284254600002896]",1589.6084806,1589.6085922999991,None,1589.6086673999998,1589.6087169999992,None,,,,,,,,,,,,,,330,001,2026-04-01_17h02.24.331,exp_sofc,,2025.2.3,59.91170213366873,2026-04-01 17h02.26.158194 +0200,
,99,0,99,,,,,,,,,,,,,,,,,,,,,,None,None,,,,,,,,,,,99,0,99,0,1589.7925840999997,,,,,,,,,,,,,,,,,,,,,,,,,,,,,,,,,,,,,,,,,,,,,,,clips/clip_hund_19_nosub_0.mp4,audios/clip_hund_19_nosub_0.mp3,audiovisual,1589.7879405999993,1590.1118723,1590.3222220999996,1590.3222220999996,1590.311705166667,1601.979050599999,1601.6785259999997,1601.678798500001,[],1601.807415700001,1601.8074970999987,None,1601.8075718,1601.8076246000019,None,,,,,,,,,,,,,,330,001,2026-04-01_17h02.24.331,exp_sofc,,2025.2.3,59.91170213366873,2026-04-01 17h02.26.158194 +0200,
,100,0,100,,,,,,,,,,,,,,,,,,,,,,None,None,,,,,,,,,,,100,0,100,0,1601.979050599999,,,,,,,,,,,,,,,,,,,,,,,,,,,,,,,,,,,,,,,,,,,,,,,clips/clip_hund_32_sub_1.mp4,audios/clip_hund_32_sub_1.mp3,audiovisual,1601.9736457,1602.323069099999,1602.5236737999985,1602.5236737999985,1602.5229287666664,1612.8308429999997,1612.5547009000002,1612.5549728000005,"[4.775415200001589, 7.21540300000197]",1612.6840929999998,1612.6841951999995,None,1612.684300500001,1612.6845493,None,,,,,,,,,,,,,,330,001,2026-04-01_17h02.24.331,exp_sofc,,2025.2.3,59.91170213366873,2026-04-01 17h02.26.158194 +0200,
,101,0,101,,,,,,,,,,,,,,,,,,,,,,None,None,,,,,,,,,,,101,0,101,0,1612.8308429999997,,,,,,,,,,,,,,,,,,,,,,,,,,,,,,,,,,,,,,,,,,,,,,,clips/clip_herz_09_sub_0.mp4,audios/silence.mp3,visual,1612.8264567000006,1613.1891479000005,1613.3915979999983,1613.3915979999983,1613.3920415666655,1625.2201677999983,1614.6413252999992,1624.9075900999997,[],1625.0374478000012,1625.0375021,None,1625.0375492999992,1625.0375773999986,None,,,,,,,,,,,,,,330,001,2026-04-01_17h02.24.331,exp_sofc,,2025.2.3,59.91170213366873,2026-04-01 17h02.26.158194 +0200,
,102,0,102,,,,,,,,,,,,,,,,,,,,,,None,None,,,,,,,,,,,102,0,102,0,1625.2201677999983,,,,,,,,,,,,,,,,,,,,,,,,,,,,,,,,,,,,,,,,,,,,,,,clips/clip_lied_18_sub_2.mp4,audios/clip_lied_18_sub_2.mp3,audiovisual,1625.2152610000012,1625.5399169000011,1625.7385195999996,1625.7385195999996,1625.739123466665,1636.7383766999992,,1636.442805499999,[5.903873499999463],1636.5619308999994,1636.5620133000011,None,1636.5620855000016,1636.5621415999994,None,,,,,,,,,,,,,,330,001,2026-04-01_17h02.24.331,exp_sofc,,2025.2.3,59.91170213366873,2026-04-01 17h02.26.158194 +0200,
,103,0,103,,,,,,,,,,,,,,,,,,,,,,None,None,,,,,,,,,,,103,0,103,0,1636.7383766999992,,,,,,,,,,,,,,,,,,,,,,,,,,,,,,,,,,,,,,,,,,,,,,,clips/clip_lied_17_sub_2.mp4,audios/clip_lied_17_sub_2.mp3,audiovisual,1636.7339522000002,1637.0648765000005,1637.2654064000017,1637.2654064000017,1637.2655251666658,1647.5531451999996,1647.2969297000018,1647.2972450000016,"[5.2718194000008225, 7.616691200000787]",1647.4214706999992,1647.4215350999984,None,1647.4216130999994,1647.4216602000015,None,,,,,,,,,,,,,,330,001,2026-04-01_17h02.24.331,exp_sofc,,2025.2.3,59.91170213366873,2026-04-01 17h02.26.158194 +0200,
,104,0,104,,,,,,,,,,,,,,,,,,,,,,None,None,,,,,,,,,,,104,0,104,0,1647.5531451999996,,,,,,,,,,,,,,,,,,,,,,,,,,,,,,,,,,,,,,,,,,,,,,,clips/clip_weißt_03_sub_0.mp4,audios/silence.mp3,visual,1647.5497542999983,1647.9233182999997,1648.1258376000005,1648.1258376000005,1648.1237323666685,1660.454020000001,1649.3758626000017,1660.1419979999991,[],1660.2800854999987,1660.2801672999994,None,1660.2802305000005,1660.2802783000006,None,,,,,,,,,,,,,,330,001,2026-04-01_17h02.24.331,exp_sofc,,2025.2.3,59.91170213366873,2026-04-01 17h02.26.158194 +0200,
,105,0,105,,,,,,,,,,,,,,,,,,,,,,None,None,,,,,,,,,,,105,0,105,0,1660.454020000001,,,,,,,,,,,,,,,,,,,,,,,,,,,,,,,,,,,,,,,,,,,,,,,clips/clip_weißt_29_nosub_1.mp4,audios/clip_weißt_29_nosub_1.mp3,audiovisual,1660.449674899999,1660.7898609000003,1660.9910648000005,1660.9910648000005,1660.9900518666657,1672.871538700001,1672.871538700001,1672.5981384000006,[6.710999200000515],1672.7141940000001,1672.7142424999984,None,1672.7142870999996,1672.7143307000006,None,,,,,,,,,,,,,,330,001,2026-04-01_17h02.24.331,exp_sofc,,2025.2.3,59.91170213366873,2026-04-01 17h02.26.158194 +0200,
,106,0,106,,,,,,,,,,,,,,,,,,,,,,None,None,,,,,,,,,,,106,0,106,0,1672.871538700001,,,,,,,,,,,,,,,,,,,,,,,,,,,,,,,,,,,,,,,,,,,,,,,clips/clip_holo_26_sub_2.mp4,audios/clip_holo_26_sub_2.mp3,audiovisual,1672.8670072999994,1673.2246199,1673.4265476,1673.4265476,1673.4261483666671,1682.935776800001,,1682.6262466000007,"[6.028896200001327, 8.19170700000177]",1682.7490552000017,1682.7491670999989,None,1682.7492672000008,1682.7493372999998,None,,,,,,,,,,,,,,330,001,2026-04-01_17h02.24.331,exp_sofc,,2025.2.3,59.91170213366873,2026-04-01 17h02.26.158194 +0200,
,107,0,107,,,,,,,,,,,,,,,,,,,,,,4,None,4.488273599999957,None,,,,,,,,,107,0,107,0,1682.935776800001,,,,,,,,,,,,,,,,,,,,,,,,,,,,,,,,,,,,,,,,,,,,,,,clips/clip_wurst_27_sub_1.mp4,audios/clip_wurst_27_sub_1.mp3,audiovisual,1682.9311186999985,1683.2550794000017,1683.4552076,1683.4552076,1683.4546802666666,1693.7945384999985,,1693.6558917000002,[6.156823099998292],1693.7892898999999,1698.2856766000004,4,1698.2857712000005,1698.2858080000005,None,4,1693.7945384999985,1693.7945384999985,1693.7945384999985,4.488273599999957,None,,,,,,,,330,001,2026-04-01_17h02.24.331,exp_sofc,,2025.2.3,59.91170213366873,2026-04-01 17h02.26.158194 +0200,
,108,0,108,,,,,,,,,,,,,,,,,,,,,,None,None,,,,,,,,,,,108,0,108,0,1698.4518959000015,,,,,,,,,,,,,,,,,,,,,,,,,,,,,,,,,,,,,,,,,,,,,,,clips/clip_wurst_24_nosub_1.mp4,audios/silence.mp3,visual,1698.4460943999984,1698.7867241999993,1698.9875858000014,1698.9875858000014,1698.986119366666,1710.6087990999986,1700.2386770999983,1710.3043528999988,[],1710.4411255000014,1710.4411867999988,None,1710.4412349999984,1710.4412661999995,None,,,,,,,,,,,,,,330,001,2026-04-01_17h02.24.331,exp_sofc,,2025.2.3,59.91170213366873,2026-04-01 17h02.26.158194 +0200,
,109,0,109,,,,,,,,,,,,,,,,,,,,,,None,None,,,,,,,,,,,109,0,109,0,1710.6087990999986,,,,,,,,,,,,,,,,,,,,,,,,,,,,,,,,,,,,,,,,,,,,,,,clips/clip_wurst_30_nosub_1.mp4,audios/clip_wurst_30_nosub_1.mp3,audiovisual,1710.6042863000002,1710.9479524999988,1711.1487315000013,1711.1487315000013,1711.1473531666672,1721.4168505999987,1721.1802764999993,1721.1805615999983,[],1721.2981997999996,1721.2982708000018,None,1721.2983786000004,1721.2984408000011,None,,,,,,,,,,,,,,330,001,2026-04-01_17h02.24.331,exp_sofc,,2025.2.3,59.91170213366873,2026-04-01 17h02.26.158194 +0200,
,110,0,110,,,,,,,,,,,,,,,,,,,,,,None,None,,,,,,,,,,,110,0,110,0,1721.4168505999987,,,,,,,,,,,,,,,,,,,,,,,,,,,,,,,,,,,,,,,,,,,,,,,clips/clip_wurst_13_nosub_0.mp4,audios/silence.mp3,visual,1721.4141649999983,1721.8028396000009,1722.0037288999993,1722.0037288999993,1722.0025948666664,1731.9247765,1723.2545759999994,1731.6357329999992,[],1731.7558839000012,1731.7559341000015,None,1731.7560217999999,1731.7560712999984,None,,,,,,,,,,,,,,330,001,2026-04-01_17h02.24.331,exp_sofc,,2025.2.3,59.91170213366873,2026-04-01 17h02.26.158194 +0200,
,111,0,111,,,,,,,,,,,,,,,,,,,,,,None,None,,,,,,,,,,,111,0,111,0,1731.9247765,,,,,,,,,,,,,,,,,,,,,,,,,,,,,,,,,,,,,,,,,,,,,,,clips/clip_wurst_07_sub_0.mp4,audios/clip_wurst_07_sub_0.mp3,audiovisual,1731.9204637000003,1732.260001999999,1732.4619085000013,1732.4619085000013,1732.4604766666673,1742.7951455000002,1742.493271700001,1742.4935011999987,[],1742.6157515000014,1742.6158195999997,None,1742.6158886999983,1742.6159482000003,None,,,,,,,,,,,,,,330,001,2026-04-01_17h02.24.331,exp_sofc,,2025.2.3,59.91170213366873,2026-04-01 17h02.26.158194 +0200,
,112,0,112,,,,,,,,,,,,,,,,,,,,,,None,None,,,,,,,,,,,112,0,112,0,1742.7951455000002,,,,,,,,,,,,,,,,,,,,,,,,,,,,,,,,,,,,,,,,,,,,,,,clips/clip_hund_29_sub_0.mp4,audios/clip_hund_29_sub_0.mp3,audiovisual,1742.7897569000015,1743.1191911999995,1743.3349870999991,1743.3197707,1743.3180973666679,1754.9939669999985,1754.9939669999985,1754.7363705999996,[11.283719200000633],1754.863637800001,1754.8636867999994,None,1754.8637449999987,1754.8637958,None,,,,,,,,,,,,,,330,001,2026-04-01_17h02.24.331,exp_sofc,,2025.2.3,59.91170213366873,2026-04-01 17h02.26.158194 +0200,
,113,0,113,,,,,,,,,,,,,,,,,,,,,,None,None,,,,,,,,,,,113,0,113,0,1754.9939669999985,,,,,,,,,,,,,,,,,,,,,,,,,,,,,,,,,,,,,,,,,,,,,,,clips/clip_hund_36_sub_2.mp4,audios/silence.mp3,visual,1754.9913723999998,1755.3629527000012,1755.5645723999987,1755.5645723999987,1755.563150766666,1764.9742154999985,1756.8149680999995,1764.7275869000005,"[3.171717900000658, 7.107633200001146]",1764.8354784000003,1764.8355470999995,None,1764.835594600001,1764.8356254999999,None,,,,,,,,,,,,,,330,001,2026-04-01_17h02.24.331,exp_sofc,,2025.2.3,59.91170213366873,2026-04-01 17h02.26.158194 +0200,
,114,0,114,,,,,,,,,,,,,,,,,,,,,,None,None,,,,,,,,,,,114,0,114,0,1764.9742154999985,,,,,,,,,,,,,,,,,,,,,,,,,,,,,,,,,,,,,,,,,,,,,,,clips/clip_claude_18_sub_0.mp4,audios/silence.mp3,visual,1764.9715352999992,1765.3369982000004,1765.5393588000006,1765.5393588000006,1765.537403366667,1774.9065507000014,1766.7888246000002,1774.5677456999983,[],1774.6983136000017,1774.6984112999999,None,1774.6985013999983,1774.6985544999989,None,,,,,,,,,,,,,,330,001,2026-04-01_17h02.24.331,exp_sofc,,2025.2.3,59.91170213366873,2026-04-01 17h02.26.158194 +0200,
,115,0,115,,,,,,,,,,,,,,,,,,,,,,None,None,,,,,,,,,,,115,0,115,0,1774.9065507000014,,,,,,,,,,,,,,,,,,,,,,,,,,,,,,,,,,,,,,,,,,,,,,,clips/clip_lied_10_sub_1.mp4,audios/clip_lied_10_sub_1.mp3,audiovisual,1774.8994133000015,1775.2086974999984,1775.4092743,1775.4092743,1775.4088784666676,1787.161157800001,1787.161157800001,1786.9290833999985,[5.060352399999829],1787.0345166000006,1787.0345683000014,None,1787.0346322000005,1787.0346843000007,None,,,,,,,,,,,,,,330,001,2026-04-01_17h02.24.331,exp_sofc,,2025.2.3,59.91170213366873,2026-04-01 17h02.26.158194 +0200,
,116,0,116,,,,,,,,,,,,,,,,,,,,,,None,None,,,,,,,,,,,116,0,116,0,1787.161157800001,,,,,,,,,,,,,,,,,,,,,,,,,,,,,,,,,,,,,,,,,,,,,,,clips/clip_wurst_11_nosub_0.mp4,audios/silence.mp3,visual,1787.1580252999993,1787.547046399999,1787.7487986000015,1787.7487986000015,1787.7481748666653,1800.0441557999984,1788.998674800001,1799.7655336999997,[],1799.908832699999,1799.9089267000018,None,1799.908999700001,1799.9090806999993,None,,,,,,,,,,,,,,330,001,2026-04-01_17h02.24.331,exp_sofc,,2025.2.3,59.91170213366873,2026-04-01 17h02.26.158194 +0200,
,117,0,117,,,,,,,,,,,,,,,,,,,,,,None,None,,,,,,,,,,,117,0,117,0,1800.0441557999984,,,,,,,,,,,,,,,,,,,,,,,,,,,,,,,,,,,,,,,,,,,,,,,clips/clip_herz_16_sub_0.mp4,audios/silence.mp3,visual,1800.0403775999985,1800.4166675000015,1800.6206238000013,1800.6206238000013,1800.6174888666685,1809.9146373000003,1801.8687242000015,1809.6482656000007,[],1809.7609373000014,1809.7610214999986,None,1809.7611004999999,1809.7611512000003,None,,,,,,,,,,,,,,330,001,2026-04-01_17h02.24.331,exp_sofc,,2025.2.3,59.91170213366873,2026-04-01 17h02.26.158194 +0200,
,118,0,118,,,,,,,,,,,,,,,,,,,,,,None,None,,,,,,,,,,,118,0,118,0,1809.9146373000003,,,,,,,,,,,,,,,,,,,,,,,,,,,,,,,,,,,,,,,,,,,,,,,clips/clip_herz_06_sub_2.mp4,audios/clip_herz_06_sub_2.mp3,audiovisual,1809.910308999999,1810.2653518000006,1810.4665399000005,1810.4665399000005,1810.4655754666676,1821.2950936999987,1821.0476144999993,1821.0478793000002,"[5.031979500003217, 8.534114699999918]",1821.1698675000007,1821.1701188000006,None,1821.1702092999985,1821.170252,None,,,,,,,,,,,,,,330,001,2026-04-01_17h02.24.331,exp_sofc,,2025.2.3,59.91170213366873,2026-04-01 17h02.26.158194 +0200,
,119,0,119,,,,,,,,,,,,,,,,,,,,,,None,None,,,,,,,,,,,119,0,119,0,1821.2950936999987,,,,,,,,,,,,,,,,,,,,,,,,,,,,,,,,,,,,,,,,,,,,,,,clips/clip_lied_08_nosub_1.mp4,audios/silence.mp3,visual,1821.2916508000017,1821.6744927,1821.8794836999987,1821.8794836999987,1821.8751812666671,1831.1089476999987,1823.1269027000017,1830.9728704000008,[7.564773800000694],1831.0982574000009,1831.0983207999998,None,1831.098384500001,1951.1152249000006,None,,,,,,,1831.1089476999987,1831.1089476999987,1831.1089476999987,1951.1148150000008,1951.1148150000008,,,330,001,2026-04-01_17h02.24.331,exp_sofc,,2025.2.3,59.91170213366873,2026-04-01 17h02.26.158194 +0200,
,120,0,120,,,,,,,,,,,,,,,,,,,,,,4,None,7.701595399998041,None,,,,,,,,,120,0,120,0,1951.2767442000004,,,,,,,,,,,,,,,,,,,,,,,,,,,,,,,,,,,,,,,,,,,,,,,clips/clip_holo_22_nosub_1.mp4,audios/silence.mp3,visual,1951.2723062000005,1951.6295213000012,1951.8306331999993,1951.8306331999993,1951.8297075666671,1961.1965530999987,1953.0805317000013,1961.0432621,[9.043537300000025],1961.1907874999997,1968.913848100001,4,1968.9139337999986,1968.9139708000002,None,4,1961.1965530999987,1961.1965530999987,1961.1965530999987,7.701595399998041,None,,,,,,,,330,001,2026-04-01_17h02.24.331,exp_sofc,,2025.2.3,59.91170213366873,2026-04-01 17h02.26.158194 +0200,
,121,0,121,,,,,,,,,,,,,,,,,,,,,,3,None,3.4424775000006775,None,,,,,,,,,121,0,121,0,1969.0935019999997,,,,,,,,,,,,,,,,,,,,,,,,,,,,,,,,,,,,,,,,,,,,,,,clips/clip_hund_04_nosub_0.mp4,audios/silence.mp3,visual,1969.0880056999995,1969.414707,1969.615742599999,1969.615742599999,1969.6148412666664,1979.3119141999996,1970.8672938000018,1979.1462460000002,[],1979.3054377000008,1982.7683963000018,3,1982.768489099999,1982.7685254999997,None,3,1979.3119141999996,1979.3119141999996,1979.3119141999996,3.4424775000006775,None,,,,,,,,330,001,2026-04-01_17h02.24.331,exp_sofc,,2025.2.3,59.91170213366873,2026-04-01 17h02.26.158194 +0200,
,122,0,122,,,,,,,,,,,,,,,,,,,,,,None,None,,,,,,,,,,,122,0,122,0,1982.9387023000018,,,,,,,,,,,,,,,,,,,,,,,,,,,,,,,,,,,,,,,,,,,,,,,clips/clip_claude_10_nosub_0.mp4,audios/silence.mp3,visual,1982.9335562999986,1983.2689637000003,1983.4717912000015,1983.4717912000015,1983.4692474666665,1994.9955808000013,1984.7223107999998,1994.6867869000016,[],1994.8025933999998,1994.8026709000005,None,1994.8027411000003,1994.8027935999999,None,,,,,,,,,,,,,,330,001,2026-04-01_17h02.24.331,exp_sofc,,2025.2.3,59.91170213366873,2026-04-01 17h02.26.158194 +0200,
,123,0,123,,,,,,,,,,,,,,,,,,,,,,4,None,3.850516400001652,None,,,,,,,,,123,0,123,0,1994.9955808000013,,,,,,,,,,,,,,,,,,,,,,,,,,,,,,,,,,,,,,,,,,,,,,,clips/clip_claude_15_sub_0.mp4,audios/clip_claude_15_sub_0.mp3,audiovisual,1994.9913483000018,1995.3142183000018,1995.5154982999993,1995.5154982999993,1995.5140680666666,2007.6745692000004,2007.5322856999992,2007.5325440999986,[],2007.6685485999988,2011.5310862000006,4,2011.531171300001,2011.5312087999991,None,4,2007.6745692000004,2007.6745692000004,2007.6745692000004,3.850516400001652,None,,,,,,,,330,001,2026-04-01_17h02.24.331,exp_sofc,,2025.2.3,59.91170213366873,2026-04-01 17h02.26.158194 +0200,
,124,0,124,,,,,,,,,,,,,,,,,,,,,,None,None,,,,,,,,,,,124,0,124,0,2011.685948800001,,,,,,,,,,,,,,,,,,,,,,,,,,,,,,,,,,,,,,,,,,,,,,,clips/clip_claude_19_nosub_0.mp4,audios/silence.mp3,visual,2011.6807440999983,2012.0412875000002,2012.2406974000005,2012.2406974000005,2012.2408897666685,2022.9370708999995,2013.4921238999996,2022.6736716000014,[],2022.8044574999985,2022.8045053999995,None,2022.8045475,2022.8045754000013,None,,,,,,,,,,,,,,330,001,2026-04-01_17h02.24.331,exp_sofc,,2025.2.3,59.91170213366873,2026-04-01 17h02.26.158194 +0200,
,125,0,125,,,,,,,,,,,,,,,,,,,,,,None,None,,,,,,,,,,,125,0,125,0,2022.9370708999995,,,,,,,,,,,,,,,,,,,,,,,,,,,,,,,,,,,,,,,,,,,,,,,clips/clip_lied_09_sub_1.mp4,audios/silence.mp3,visual,2022.9340248000008,2023.3054324000004,2023.5095484999983,2023.5095484999983,2023.5054501666675,2034.2304461999993,2024.757645900001,2033.9233224000018,[],2034.049942900001,2034.0500776000008,None,2034.0501822000006,2034.0502430999986,None,,,,,,,,,,,,,,330,001,2026-04-01_17h02.24.331,exp_sofc,,2025.2.3,59.91170213366873,2026-04-01 17h02.26.158194 +0200,
,126,0,126,,,,,,,,,,,,,,,,,,,,,,None,None,,,,,,,,,,,126,0,126,0,2034.2304461999993,,,,,,,,,,,,,,,,,,,,,,,,,,,,,,,,,,,,,,,,,,,,,,,clips/clip_weißt_26_nosub_1.mp4,audios/clip_weißt_26_nosub_1.mp3,audiovisual,2034.2262727999987,2034.5653144999997,2034.7695655999996,2034.7539963000017,2034.7495186666677,2045.2386125000012,2044.9811803999983,2044.981500599999,[7.366453900001943],2045.0868923000016,2045.0869420999989,None,2045.087009499999,2045.0870565000005,None,,,,,,,,,,,,,,330,001,2026-04-01_17h02.24.331,exp_sofc,,2025.2.3,59.91170213366873,2026-04-01 17h02.26.158194 +0200,
,127,0,127,,,,,,,,,,,,,,,,,,,,,,None,None,,,,,,,,,,,127,0,127,0,2045.2386125000012,,,,,,,,,,,,,,,,,,,,,,,,,,,,,,,,,,,,,,,,,,,,,,,clips/clip_claude_24_sub_1.mp4,audios/silence.mp3,visual,2045.2353335000007,2045.5917768,2045.7938982999985,2045.7938982999985,2045.7920741666678,2052.265814800001,2047.0428831999998,2051.9847161,[6.114803799999208],2052.1280215000006,2052.1280933000016,None,2052.1281581000003,2052.128190899999,None,,,,,,,,,,,,,,330,001,2026-04-01_17h02.24.331,exp_sofc,,2025.2.3,59.91170213366873,2026-04-01 17h02.26.158194 +0200,
,128,0,128,,,,,,,,,,,,,,,,,,,,,,None,None,,,,,,,,,,,128,0,128,0,2052.265814800001,,,,,,,,,,,,,,,,,,,,,,,,,,,,,,,,,,,,,,,,,,,,,,,clips/clip_hund_01_sub_0.mp4,audios/silence.mp3,visual,2052.261184499999,2052.635635400002,2052.8357853000016,2052.8357853000016,2052.8348850666666,2063.8962866,2054.0873429999992,2063.6192085000002,[],2063.7391511999995,2063.739200799999,None,2063.739264,2063.7393295,None,,,,,,,,,,,,,,330,001,2026-04-01_17h02.24.331,exp_sofc,,2025.2.3,59.91170213366873,2026-04-01 17h02.26.158194 +0200,
,129,0,129,,,,,,,,,,,,,,,,,,,,,,1,None,3.479440999999497,None,,,,,,,,,129,0,129,0,2063.8962866,,,,,,,,,,,,,,,,,,,,,,,,,,,,,,,,,,,,,,,,,,,,,,,clips/clip_wurst_33_nosub_0.mp4,audios/clip_wurst_33_nosub_0.mp3,audiovisual,2063.891926299999,2064.2538454999994,2064.4549124000005,2064.4549124000005,2064.4540342666664,2074.322257,2074.180953700001,2074.181472600001,[],2074.3167705999986,2077.8126177000013,1,2077.8127105999993,2077.8127862,None,1,2074.322257,2074.322257,2074.322257,3.479440999999497,None,,,,,,,,330,001,2026-04-01_17h02.24.331,exp_sofc,,2025.2.3,59.91170213366873,2026-04-01 17h02.26.158194 +0200,
,130,0,130,,,,,,,,,,,,,,,,,,,,,,None,None,,,,,,,,,,,130,0,130,0,2078.005395100001,,,,,,,,,,,,,,,,,,,,,,,,,,,,,,,,,,,,,,,,,,,,,,,clips/clip_claude_17_sub_1.mp4,audios/clip_claude_17_sub_1.mp3,audiovisual,2078.0002514000007,2078.3212400999982,2078.5234119999986,2078.5234119999986,2078.5224754666674,2090.270755900001,2090.270755900001,2090.0401649000014,[10.408732700001565],2090.1527659999992,2090.152814699999,None,2090.152856500001,2090.152886,None,,,,,,,,,,,,,,330,001,2026-04-01_17h02.24.331,exp_sofc,,2025.2.3,59.91170213366873,2026-04-01 17h02.26.158194 +0200,
,131,0,131,,,,,,,,,,,,,,,,,,,,,,4,None,4.9629956999997376,None,,,,,,,,,131,0,131,0,2090.270755900001,,,,,,,,,,,,,,,,,,,,,,,,,,,,,,,,,,,,,,,,,,,,,,,clips/clip_hund_35_sub_0.mp4,audios/silence.mp3,visual,2090.2674577,2090.656642099999,2090.8589132000016,2090.8589132000016,2090.858165666665,2101.4119704000004,2092.108948000001,2101.2814603000006,[],2101.4066624000006,2106.3902232,4,2106.3903232999983,2106.3903796000013,None,4,2101.4119704000004,2101.4119704000004,2101.4119704000004,4.9629956999997376,None,,,,,,,,330,001,2026-04-01_17h02.24.331,exp_sofc,,2025.2.3,59.91170213366873,2026-04-01 17h02.26.158194 +0200,
,132,0,132,,,,,,,,,,,,,,,,,,,,,,2,None,5.65050809999957,None,,,,,,,,,132,0,132,0,2106.5480419000014,,,,,,,,,,,,,,,,,,,,,,,,,,,,,,,,,,,,,,,,,,,,,,,clips/clip_hund_03_sub_1.mp4,audios/silence.mp3,visual,2106.544066800001,2106.8995762999984,2107.1015855000005,2107.1015855000005,2107.1002435666674,2119.1361104999996,2108.353352599999,2118.9940500999983,[6.887039000001096],2119.1308831999995,2124.7949221000017,2,2124.7950138000015,2124.7950502999993,None,2,2119.1361104999996,2119.1361104999996,2119.1361104999996,5.65050809999957,None,,,,,,,,330,001,2026-04-01_17h02.24.331,exp_sofc,,2025.2.3,59.91170213366873,2026-04-01 17h02.26.158194 +0200,
,133,0,133,,,,,,,,,,,,,,,,,,,,,,4,None,6.662198500001978,None,,,,,,,,,133,0,133,0,2124.9765454000008,,,,,,,,,,,,,,,,,,,,,,,,,,,,,,,,,,,,,,,,,,,,,,,clips/clip_dampf_02_nosub_1.mp4,audios/clip_dampf_02_nosub_1.mp3,audiovisual,2124.9699008999996,2125.2950028999985,2125.497163799999,2125.497163799999,2125.4957021666673,2134.952570199999,2134.952570199999,2134.827748200001,[5.106102800000372],2134.946938699999,2141.6216910000003,4,2141.621777100001,2141.6218131999995,None,4,2134.952570199999,2134.952570199999,2134.952570199999,6.662198500001978,None,,,,,,,,330,001,2026-04-01_17h02.24.331,exp_sofc,,2025.2.3,59.91170213366873,2026-04-01 17h02.26.158194 +0200,
,134,0,134,,,,,,,,,,,,,,,,,,,,,,None,None,,,,,,,,,,,134,0,134,0,2141.792088800001,,,,,,,,,,,,,,,,,,,,,,,,,,,,,,,,,,,,,,,,,,,,,,,clips/clip_claude_06_nosub_1.mp4,audios/silence.mp3,visual,2141.7863972000014,2142.121650000001,2142.3225902999984,2142.3225902999984,2142.3215405666674,2155.2151058000018,2143.5747660999987,2154.9080071999997,[3.9665342000007513],2155.029533000001,2155.029582700001,None,2155.029626899999,2155.0296554999986,None,,,,,,,,,,,,,,330,001,2026-04-01_17h02.24.331,exp_sofc,,2025.2.3,59.91170213366873,2026-04-01 17h02.26.158194 +0200,
,135,0,135,,,,,,,,,,,,,,,,,,,,,,None,None,,,,,,,,,,,135,0,135,0,2155.2151058000018,,,,,,,,,,,,,,,,,,,,,,,,,,,,,,,,,,,,,,,,,,,,,,,clips/clip_weißt_23_nosub_1.mp4,audios/clip_weißt_23_nosub_1.mp3,audiovisual,2155.2108555999985,2155.5339523000002,2155.7353441999985,2155.7353441999985,2155.734395566666,2167.4498714,2167.1514709000003,2167.1517729000007,[8.416914299999917],2167.2788383000006,2167.2789134999985,None,2167.2789870000015,2167.2790222000003,None,,,,,,,,,,,,,,330,001,2026-04-01_17h02.24.331,exp_sofc,,2025.2.3,59.91170213366873,2026-04-01 17h02.26.158194 +0200,
,136,0,136,,,,,,,,,,,,,,,,,,,,,,None,None,,,,,,,,,,,136,0,136,0,2167.4498714,,,,,,,,,,,,,,,,,,,,,,,,,,,,,,,,,,,,,,,,,,,,,,,clips/clip_holo_01_nosub_1.mp4,audios/clip_holo_01_nosub_1.mp3,audiovisual,2167.4455301999988,2167.7783205999986,2167.9801996999995,2167.9801996999995,2167.9790267666654,2177.4699814000014,,2177.1804414,[4.1880300999982865],2177.2862351000003,2177.2863289000015,None,2177.2863973999993,2177.286449200001,None,,,,,,,,,,,,,,330,001,2026-04-01_17h02.24.331,exp_sofc,,2025.2.3,59.91170213366873,2026-04-01 17h02.26.158194 +0200,
,137,0,137,,,,,,,,,,,,,,,,,,,,,,None,None,,,,,,,,,,,137,0,137,0,2177.4699814000014,,,,,,,,,,,,,,,,,,,,,,,,,,,,,,,,,,,,,,,,,,,,,,,clips/clip_hund_24_sub_1.mp4,audios/clip_hund_24_sub_1.mp3,audiovisual,2177.4658461,2177.8019427,2178.005092399999,2178.005092399999,2178.0029104666687,2190.260180000001,2190.0208652,2190.0210918999983,[8.107011100000818],2190.133636999999,2190.1337112,None,2190.1337839000007,2190.133817599999,None,,,,,,,,,,,,,,330,001,2026-04-01_17h02.24.331,exp_sofc,,2025.2.3,59.91170213366873,2026-04-01 17h02.26.158194 +0200,
,138,0,138,,,,,,,,,,,,,,,,,,,,,,None,None,,,,,,,,,,,138,0,138,0,2190.260180000001,,,,,,,,,,,,,,,,,,,,,,,,,,,,,,,,,,,,,,,,,,,,,,,clips/clip_lied_02_sub_2.mp4,audios/silence.mp3,visual,2190.2566965000005,2190.6449562999987,2190.8478504000013,2190.8478504000013,2190.845651166667,2202.138345700001,2192.0974983999986,2201.8624840999983,"[4.541707000000315, 10.322106300001906]",2201.9892317000013,2201.9893083999996,None,2201.9893849,2201.989433300001,None,,,,,,,,,,,,,,330,001,2026-04-01_17h02.24.331,exp_sofc,,2025.2.3,59.91170213366873,2026-04-01 17h02.26.158194 +0200,
,139,0,139,,,,,,,,,,,,,,,,,,,,,,None,None,,,,,,,,,,,139,0,139,0,2202.138345700001,,,,,,,,,,,,,,,,,,,,,,,,,,,,,,,,,,,,,,,,,,,,,,,clips/clip_hund_20_sub_0.mp4,audios/silence.mp3,visual,2202.1349687,2202.4968558,2202.7009376999995,2202.7009376999995,2202.697134966668,2214.5415730999994,2203.949169700001,2214.2166948000013,[],2214.3693047000015,2214.369374500002,None,2214.369443200001,2214.3694907999998,None,,,,,,,,,,,,,,330,001,2026-04-01_17h02.24.331,exp_sofc,,2025.2.3,59.91170213366873,2026-04-01 17h02.26.158194 +0200,
,140,0,140,,,,,,,,,,,,,,,,,,,,,,None,None,,,,,,,,,,,140,0,140,0,2214.5415730999994,,,,,,,,,,,,,,,,,,,,,,,,,,,,,,,,,,,,,,,,,,,,,,,clips/clip_holo_27_sub_1.mp4,audios/clip_holo_27_sub_1.mp3,audiovisual,2214.5372854999987,2214.8825515999997,2215.085303,2215.085303,2215.082722366668,2225.3849315000007,,2225.0664890000007,[5.413765799999965],2225.1906667000003,2225.1907401999997,None,2225.1908073999984,2225.1908743999993,None,,,,,,,,,,,,,,330,001,2026-04-01_17h02.24.331,exp_sofc,,2025.2.3,59.91170213366873,2026-04-01 17h02.26.158194 +0200,
,141,0,141,,,,,,,,,,,,,,,,,,,,,,None,None,,,,,,,,,,,141,0,141,0,2225.3849315000007,,,,,,,,,,,,,,,,,,,,,,,,,,,,,,,,,,,,,,,,,,,,,,,clips/clip_weißt_12_sub_1.mp4,audios/clip_weißt_12_sub_1.mp3,audiovisual,2225.3799966000006,2225.6998467999983,2225.901017100001,2225.901017100001,2225.899606866668,2238.069220900001,2237.8183776000005,2237.8186595000006,[9.256426699997974],2237.9290454,2237.9291381000003,None,2237.929228600002,2237.929273599999,None,,,,,,,,,,,,,,330,001,2026-04-01_17h02.24.331,exp_sofc,,2025.2.3,59.91170213366873,2026-04-01 17h02.26.158194 +0200,
,142,0,142,,,,,,,,,,,,,,,,,,,,,,None,None,,,,,,,,,,,142,0,142,0,2238.069220900001,,,,,,,,,,,,,,,,,,,,,,,,,,,,,,,,,,,,,,,,,,,,,,,clips/clip_claude_08_nosub_0.mp4,audios/silence.mp3,visual,2238.0659405000006,2238.444486299999,2238.6525378000006,2238.6525378000006,2238.6451096666683,2248.5218982000006,2239.8977864000008,2248.277571499999,[1.7663799000001745],2248.3965468999995,2248.3966253,None,2248.3967024000012,2248.3967397000015,None,,,,,,,,,,,,,,330,001,2026-04-01_17h02.24.331,exp_sofc,,2025.2.3,59.91170213366873,2026-04-01 17h02.26.158194 +0200,
,143,0,143,,,,,,,,,,,,,,,,,,,,,,None,None,,,,,,,,,,,143,0,143,0,2248.5218982000006,,,,,,,,,,,,,,,,,,,,,,,,,,,,,,,,,,,,,,,,,,,,,,,clips/clip_wurst_10_sub_2.mp4,audios/silence.mp3,visual,2248.5184221000018,2248.9023602999987,2249.1100343,2249.1100343,2249.1025639666664,2258.142347500001,2250.354781599999,2257.900749299999,"[5.297352400000818, 7.813335000002553]",2258.0139555999995,2258.0140328000016,None,2258.0141077000007,2258.0141618000016,None,,,,,,,,,,,,,,330,001,2026-04-01_17h02.24.331,exp_sofc,,2025.2.3,59.91170213366873,2026-04-01 17h02.26.158194 +0200,
,144,0,144,,,,,,,,,,,,,,,,,,,,,,None,None,,,,,,,,,,,144,0,144,0,2258.142347500001,,,,,,,,,,,,,,,,,,,,,,,,,,,,,,,,,,,,,,,,,,,,,,,clips/clip_wurst_25_nosub_1.mp4,audios/silence.mp3,visual,2258.138821100001,2258.5271162999998,2258.7270169000003,2258.7270169000003,2258.727169066668,2270.2611179000014,2259.9780194000014,2269.960917200002,[],2270.0778131000006,2270.0778828,None,2270.0779814000016,2270.0780360999997,None,,,,,,,,,,,,,,330,001,2026-04-01_17h02.24.331,exp_sofc,,2025.2.3,59.91170213366873,2026-04-01 17h02.26.158194 +0200,
,145,0,145,,,,,,,,,,,,,,,,,,,,,,None,None,,,,,,,,,,,145,0,145,0,2270.2611179000014,,,,,,,,,,,,,,,,,,,,,,,,,,,,,,,,,,,,,,,,,,,,,,,clips/clip_wurst_01_nosub_0.mp4,audios/clip_wurst_01_nosub_0.mp3,audiovisual,2270.2569611,2270.586652000002,2270.7885134999997,2270.7885134999997,2270.7878013666673,2281.0058787999988,2280.7352976,2280.735731500001,[],2280.8537483,2280.8538799999988,None,2280.8539555999996,2280.8539902999983,None,,,,,,,,,,,,,,330,001,2026-04-01_17h02.24.331,exp_sofc,,2025.2.3,59.91170213366873,2026-04-01 17h02.26.158194 +0200,
,146,0,146,,,,,,,,,,,,,,,,,,,,,,None,None,,,,,,,,,,,146,0,146,0,2281.0058787999988,,,,,,,,,,,,,,,,,,,,,,,,,,,,,,,,,,,,,,,,,,,,,,,clips/clip_weißt_19_nosub_1.mp4,audios/silence.mp3,visual,2281.0021233000007,2281.3529550999992,2281.5536729000014,2281.5536729000014,2281.5542753666673,2291.9246091999994,2282.805378500001,2291.5857343999996,[],2291.720330600001,2291.720419699999,None,2291.720517900001,2291.7205713000003,None,,,,,,,,,,,,,,330,001,2026-04-01_17h02.24.331,exp_sofc,,2025.2.3,59.91170213366873,2026-04-01 17h02.26.158194 +0200,
