instruction_text,thisN,thisTrialN,thisRepN,key_resp_instruction.keys,key_resp_instruction.rt,key_resp_instruction.duration,clip_file,clip_path,sound_path,movie,subtitles,n_cut,clip_num,first_cut,second_cut,clip_duration,attention_check_question,attention_check_correct,attention_check_distractor_1,attention_check_distractor_2,attention_check_distractor_3,prac_attention_resp.keys,prac_attention_resp.rt,prac_attention_resp.duration,exp_atttention_resp.keys,exp_pause_resp.keys,exp_atttention_resp.rt,exp_atttention_resp.duration,exp_pause_resp.rt,exp_pause_resp.duration,instruction_trials.thisRepN,instruction_trials.thisTrialN,instruction_trials.thisN,instruction_trials.thisIndex,practice_trials.thisRepN,practice_trials.thisTrialN,practice_trials.thisN,practice_trials.thisIndex,experiment_trials.thisRepN,experiment_trials.thisTrialN,experiment_trials.thisN,experiment_trials.thisIndex,thisRow.t,notes,instructions.started,text_instruction.started,key_resp_instruction.started,instructions.stopped,instruction_trials.key_resp_instruction.keys,instruction_trials.key_resp_instruction.rt,instruction_trials.key_resp_instruction.duration,informed_consent.started,slider_informed_consent.started,text_informed_consent.started,informed_consent.stopped,slider_informed_consent.response,slider_informed_consent.rt,begin_practice.started,begin_practice_text.started,begin_practice.stopped,Practice_clip_name,Practice_video_used,Practice_audio_used,Practice_modality,Practice_subtitles,Practice_attention_check,practice_clip.started,prac_feedback.started,prac_fixation_cross.started,prac_fixation_cross.stopped,prac_clip.started,prac_sound.started,prac_sound.stopped,prac_clip.stopped,practice_clip.stopped,prac_all_cut_rts,Practice_correct_key_required,practice_attention_check.started,prac_attention_resp.started,prac_question.started,prac_options.started,practice_attention_check.stopped,practice_trials.prac_attention_resp.keys,practice_trials.prac_attention_resp.rt,practice_trials.prac_attention_resp.duration,begin_experiment.started,begin_experiment_text.started,begin_experiment_text.stopped,begin_experiment.stopped,video_used,audio_used,condition_modality,experiment_clip.started,exp_fixation_cross.started,exp_fixation_cross.stopped,exp_clip.started,exp_sound.started,exp_clip.stopped,experiment_clip.stopped,all_cut_rts,experiment_attention_check.started,experiment_attention_check.stopped,experiment_trials.exp_atttention_resp.keys,experiment_pause.started,experiment_pause.stopped,experiment_trials.exp_pause_resp.keys,exp_sound.stopped,correct_key_required,exp_atttention_resp.started,exp_question.started,exp_options.started,experiment_trials.exp_atttention_resp.rt,experiment_trials.exp_atttention_resp.duration,exp_pause_text.started,exp_pause_resp.started,exp_countdown.started,exp_pause_resp.stopped,exp_countdown.stopped,experiment_trials.exp_pause_resp.rt,experiment_trials.exp_pause_resp.duration,end.started,text_end.started,participant,session,date,expName,expVersion,psychopyVersion,frameRate,expStart,
"Herzlich willkommen!

Vielen Dank, dass Sie an unserer Studie teilnehmen. Die Untersuchung wird insgesamt etwa 35 Minuten in Anspruch nehmen.

Bevor wir beginnen, beachten Sie bitte folgende Voraussetzungen für die Teilnahme:
• Sie sind mindestens 18 Jahre alt.
• Ihre Muttersprache ist Deutsch.

(Drücken Sie die Leertaste, um fortzufahren)",0,0,0,space,2.2320393999980297,None,,,,,,,,,,,,,,,,,,,,,,,,,0,0,0,0,,,,,,,,,0.030169300000125077,,0.0072478999973100144,0.030169300000125077,0.030169300000125077,2.2719158999971114,space,2.2320393999980297,None,,,,,,,,,,,,,,,,,,,,,,,,,,,,,,,,,,,,,,,,,,,,,,,,,,,,,,,,,,,,,,,,,,,,,,,,335,001,2026-04-01_17h59.32.359,exp_sofc,,2025.2.3,59.925811845544914,2026-04-01 17h59.32.848560 +0200,
"Ablauf der Studie

Ihnen werden in schneller Abfolge viele kurze Filmclips gezeigt.
Ihre Aufgabe ist einfach:

Drücken Sie jedes Mal die Leertaste, wenn Sie einen Filmschnitt (Cut) erkennen.

Zusätzlich werden Ihnen gelegentlich kurze Verständnisfragen zu den gezeigten Clips gestellt.

(Drücken Sie die Leertaste, um fortzufahren),",1,1,0,space,0.17936589999953867,None,,,,,,,,,,,,,,,,,,,,,,,,,0,1,1,1,,,,,,,,,2.2926152,,2.2720227999998315,2.2926152,2.2926152,2.4848794999998063,space,0.17936589999953867,None,,,,,,,,,,,,,,,,,,,,,,,,,,,,,,,,,,,,,,,,,,,,,,,,,,,,,,,,,,,,,,,,,,,,,,,,335,001,2026-04-01_17h59.32.359,exp_sofc,,2025.2.3,59.925811845544914,2026-04-01 17h59.32.848560 +0200,
"Freiwilligkeit Ihrer Teilnahme

Ihre Teilnahme an dieser Studie ist absolut freiwillig. Sie können das Experiment jederzeit und ohne Angabe von Gründen abbrechen, ohne dass Ihnen daraus irgendwelche Nachteile entstehen.

Sollten Sie die Studie vorzeitig beenden, werden Ihre bis dahin erhobenen Daten umgehend gelöscht und nicht gespeichert.

(Drücken Sie die Leertaste, um fortzufahren)",2,2,0,space,0.5532233999983873,None,,,,,,,,,,,,,,,,,,,,,,,,,0,2,2,2,,,,,,,,,2.5064429999983986,,2.4849785000005795,2.5064429999983986,2.5064429999983986,3.0689286999986507,space,0.5532233999983873,None,,,,,,,,,,,,,,,,,,,,,,,,,,,,,,,,,,,,,,,,,,,,,,,,,,,,,,,,,,,,,,,,,,,,,,,,335,001,2026-04-01_17h59.32.359,exp_sofc,,2025.2.3,59.925811845544914,2026-04-01 17h59.32.848560 +0200,
"Datenschutz und Anonymität

Die Erhebung und Auswertung Ihrer Daten erfolgt am Fachbereich Psychologie der Universität Tübingen und ist vollständig anonym. Ihr Name wird zu keinem Zeitpunkt erfragt oder gespeichert. Niemand wird Ihre Daten mit Ihrer Person in Verbindung bringen können.

Die anonymisierten Experimentaldaten werden nach Abschluss der Erhebung für mindestens 10 Jahre gespeichert und zu Forschungszwecken in einer öffentlichen Datenbank zugänglich gemacht.

(Drücken Sie die Leertaste, um fortzufahren),",3,3,0,space,0.4058694999985164,None,,,,,,,,,,,,,,,,,,,,,,,,,0,3,3,3,,,,,,,,,3.160337699999218,,3.0690658999992593,3.160337699999218,3.160337699999218,3.578571899997769,space,0.4058694999985164,None,,,,,,,,,,,,,,,,,,,,,,,,,,,,,,,,,,,,,,,,,,,,,,,,,,,,,,,,,,,,,,,,,,,,,,,,335,001,2026-04-01_17h59.32.359,exp_sofc,,2025.2.3,59.925811845544914,2026-04-01 17h59.32.848560 +0200,
"Einverständniserklärung

Bitte lesen Sie die folgende Erklärung aufmerksam durch:

Ich bestätige, dass ich über 18 Jahre alt bin und ausreichend Zeit hatte, mich für die Teilnahme zu entscheiden. Ich wurde über die Erhebung, Verarbeitung und öffentliche Zugänglichmachung meiner anonymisierten Daten angemessen informiert.
Ich bin mir bewusst, dass ich das Experiment jederzeit abbrechen kann.

(Drücken Sie die Leertaste, um fortzufahren)",4,4,0,space,0.5216742000011436,None,,,,,,,,,,,,,,,,,,,,,,,,,0,4,4,4,,,,,,,,,3.6007817999998224,,3.5787013999979536,3.6007817999998224,3.6007817999998224,4.129001400000561,space,0.5216742000011436,None,,,,,,,,,,,,,,,,,,,,,,,,,,,,,,,,,,,,,,,,,,,,,,,,,,,,,,,,,,,,,,,,,,,,,,,,335,001,2026-04-01_17h59.32.359,exp_sofc,,2025.2.3,59.925811845544914,2026-04-01 17h59.32.848560 +0200,
,,,,,,,,,,,,,,,,,,,,,,,,,,,,,,,,,,,,,,,,,,,,,,,,,,,,4.129917700000078,4.1456447999989905,4.1456447999989905,6.5348290000001725,ich stimme zu,2.3897858999989694,,,,,,,,,,,,,,,,,,,,,,,,,,,,,,,,,,,,,,,,,,,,,,,,,,,,,,,,,,,,,,,,,,335,001,2026-04-01_17h59.32.359,exp_sofc,,2025.2.3,59.925811845544914,2026-04-01 17h59.32.848560 +0200,
,,,,,,,,,,,,,,,,,,,,,,,,,,,,,,,,,,,,,,,,,,,,,,,,,,,,,,,,,,6.534867099999246,6.549716699999408,11.540346499998122,,,,,,,,,,,,,,,,,,,,,,,,,,,,,,,,,,,,,,,,,,,,,,,,,,,,,,,,,,,,,,,335,001,2026-04-01_17h59.32.359,exp_sofc,,2025.2.3,59.925811845544914,2026-04-01 17h59.32.848560 +0200,
,0,0,0,,,,clip_weißt_10_nosub_1,clips/clip_weißt_10_nosub_1.mp4,audios/clip_weißt_10_nosub_1.mp3,weißt,nosub,1,10,4280.0,NA,11000,Was macht der Mann?,er greift an den Fernseher,er schaltet das Radio ein,er wirft eine Flasche,er öffnet das Fenster,3,17.363538500001596,None,,,,,,,,,,,0,0,0,6,,,,,11.67413999999917,,,,,,,,,,,,,,,,,,clip_weißt_09_sub_1,clips/clip_weißt_09_sub_1.mp4,audios/silence.mp3,visual,sub,True,11.667243599997164,11.67413999999917,12.04094780000014,12.241713999999774,12.241713999999774,12.242248566665028,13.493452099999558,21.391174199998204,21.273845299998356,[6.12492679999923],4,21.38679090000005,21.391174199998204,21.391174199998204,21.391174199998204,38.76617020000049,3,17.363538500001596,None,,,,,,,,,,,,,,,,,,,,,,,,,,,,,,,,,,,,,,335,001,2026-04-01_17h59.32.359,exp_sofc,,2025.2.3,59.925811845544914,2026-04-01 17h59.32.848560 +0200,
,1,1,0,,,,clip_weißt_09_sub_1,clips/clip_weißt_09_sub_1.mp4,audios/silence.mp3,weißt,sub,1,9,4866.0,NA,9000,Was macht die Frau?,sie wickelt ein Band auf,sie näht,sie strickt,sie faltet Wäsche,None,,,,,,,,,,,,,0,1,1,5,,,,,38.880696699998225,,,,,,,,,,,,,,,,,,clip_weißt_18_nosub_1,clips/clip_weißt_18_nosub_1.mp4,audios/silence.mp3,visual,nosub,False,38.87474429999929,38.880696699998225,39.26548829999956,39.467015999998694,39.467015999998694,39.46599306666418,40.717704599999706,51.71602729999722,51.485799099998985,[6.7683711999998195],,51.59870779999983,,,,51.59873779999907,None,,,,,,,,,,,,,,,,,,,,,,,,,,,,,,,,,,,,,,,,335,001,2026-04-01_17h59.32.359,exp_sofc,,2025.2.3,59.925811845544914,2026-04-01 17h59.32.848560 +0200,
,2,2,0,,,,clip_hund_26_sub_1,clips/clip_hund_26_sub_1.mp4,audios/silence.mp3,hund,sub,0,26,NA,NA,9333,Wie wirkt die Frau?,amüsiert,hasserfüllt,traurig,ängstlich,None,,,,,,,,,,,,,0,2,2,3,,,,,51.71602729999722,,,,,,,,,,,,,,,,,,clip_hund_28_nosub_0,clips/clip_hund_28_nosub_0.mp4,audios/clip_hund_28_nosub_0.mp3,audiovisual,nosub,False,51.710450599999604,51.71602729999722,52.10182039999927,52.30233210000006,52.30233210000006,52.30212376666556,62.380120999998326,62.380120999998326,62.1673437999998,[],,62.267987999999605,,,,62.26802509999834,None,,,,,,,,,,,,,,,,,,,,,,,,,,,,,,,,,,,,,,,,335,001,2026-04-01_17h59.32.359,exp_sofc,,2025.2.3,59.925811845544914,2026-04-01 17h59.32.848560 +0200,
,3,3,0,,,,clip_weißt_21_nosub_0,clips/clip_weißt_21_nosub_0.mp4,audios/silence.mp3,weißt,nosub,0,21,NA,NA,10080,Wo stehen die Personen?,am Balkongeländer,am Strand,an einer Bushaltestelle,im Wald,2,5.3170654000023205,None,,,,,,,,,,,0,3,3,1,,,,,62.380120999998326,,,,,,,,,,,,,,,,,,clip_weißt_21_nosub_0,clips/clip_weißt_21_nosub_0.mp4,audios/silence.mp3,visual,nosub,True,62.373859999999695,62.380120999998326,62.7805331999989,62.98070960000041,62.98070960000041,62.98134616666381,64.23262379999869,73.20333259999825,73.0816672999972,[1.7561996000004],2,73.2000083999992,73.20333259999825,73.20333259999825,73.20333259999825,78.52206029999797,2,5.3170654000023205,None,,,,,,,,,,,,,,,,,,,,,,,,,,,,,,,,,,,,,,335,001,2026-04-01_17h59.32.359,exp_sofc,,2025.2.3,59.925811845544914,2026-04-01 17h59.32.848560 +0200,
,4,4,0,,,,clip_hund_31_sub_0,clips/clip_hund_31_sub_0.mp4,audios/silence.mp3,hund,sub,1,31,1966.0,NA,8433,Welche Tageszeit ist es?,abends,morgens,mittags,nachts,None,,,,,,,,,,,,,0,4,4,9,,,,,78.64594609999767,,,,,,,,,,,,,,,,,,clip_hund_06_nosub_0,clips/clip_hund_06_nosub_0.mp4,audios/clip_hund_06_nosub_0.mp3,audiovisual,nosub,False,78.63985759999923,78.64594609999767,79.02217119999841,79.22273959999802,79.22273959999802,79.2233885666649,90.35327309999775,90.35327309999775,90.11196829999972,[],,90.21816810000018,,,,90.21819770000002,None,,,,,,,,,,,,,,,,,,,,,,,,,,,,,,,,,,,,,,,,335,001,2026-04-01_17h59.32.359,exp_sofc,,2025.2.3,59.925811845544914,2026-04-01 17h59.32.848560 +0200,
,5,5,0,,,,clip_hund_25_sub_1,clips/clip_hund_25_sub_1.mp4,audios/silence.mp3,hund,sub,1,25,5466.0,NA,8300,Mit was essen die Personen?,mit ihren Händen,mit Messer und Gabel,mit Stäbchen,mit einem Löffel,None,,,,,,,,,,,,,0,5,5,11,,,,,90.35327309999775,,,,,,,,,,,,,,,,,,clip_weißt_10_nosub_1,clips/clip_weißt_10_nosub_1.mp4,audios/clip_weißt_10_nosub_1.mp3,audiovisual,nosub,False,90.34600169999976,90.35327309999775,90.71545010000045,90.91816409999956,90.91816409999956,90.91753876666577,102.14449839999725,102.14449839999725,101.93422819999978,[5.703508800001146],,102.02396509999744,,,,102.0240066999977,None,,,,,,,,,,,,,,,,,,,,,,,,,,,,,,,,,,,,,,,,335,001,2026-04-01_17h59.32.359,exp_sofc,,2025.2.3,59.925811845544914,2026-04-01 17h59.32.848560 +0200,
,6,6,0,,,,clip_hund_28_nosub_0,clips/clip_hund_28_nosub_0.mp4,audios/clip_hund_28_nosub_0.mp3,hund,nosub,0,28,NA,NA,9840,Was steht auf dem Tisch vor den Personen?,Weinflasche mit Gläsern,Wasser,Bier,Kaffee,None,,,,,,,,,,,,,0,6,6,4,,,,,102.14449839999725,,,,,,,,,,,,,,,,,,clip_wurst_09_sub_1,clips/clip_wurst_09_sub_1.mp4,audios/clip_wurst_09_sub_1.mp3,audiovisual,sub,False,102.1389941999987,102.14449839999725,102.53025409999827,102.72955809999985,102.72955809999985,102.73056146666592,,114.24450969999816,114.02807699999903,[4.767159700000775],,114.13451229999919,,,,114.13455389999945,None,,,,,,,,,,,,,,,,,,,,,,,,,,,,,,,,,,,,,,,,335,001,2026-04-01_17h59.32.359,exp_sofc,,2025.2.3,59.925811845544914,2026-04-01 17h59.32.848560 +0200,
,7,7,0,,,,clip_weißt_05_sub_0,clips/clip_weißt_05_sub_0.mp4,audios/clip_weißt_05_sub_0.mp3,weißt,sub,0,5,NA,NA,9767,Wer trägt die Leiter?,die Frau,der Mann,beide,keiner,None,,,,,,,,,,,,,0,7,7,0,,,,,114.24450969999816,,,,,,,,,,,,,,,,,,clip_hund_31_sub_0,clips/clip_hund_31_sub_0.mp4,audios/silence.mp3,visual,sub,False,114.23779300000024,114.24450969999816,114.6485606999995,114.84850649999862,114.84850649999862,114.84887486666436,116.10028299999976,123.54461789999914,123.31328949999806,[3.225614200000564],,123.43016559999887,,,,123.43019939999795,None,,,,,,,,,,,,,,,,,,,,,,,,,,,,,,,,,,,,,,,,335,001,2026-04-01_17h59.32.359,exp_sofc,,2025.2.3,59.925811845544914,2026-04-01 17h59.32.848560 +0200,
,8,8,0,,,,clip_weißt_18_nosub_1,clips/clip_weißt_18_nosub_1.mp4,audios/silence.mp3,weißt,nosub,1,18,5680.0,NA,12000,Wie wirken die Personen?,überrascht,wütend,verzweifelt,gelangweilt,None,,,,,,,,,,,,,0,8,8,7,,,,,123.54461789999914,,,,,,,,,,,,,,,,,,clip_hund_26_sub_1,clips/clip_hund_26_sub_1.mp4,audios/silence.mp3,visual,sub,False,123.53939279999759,123.54461789999914,123.9299659999997,124.12963579999996,124.12963579999996,124.1305043666655,125.38177580000047,133.69336909999765,133.4946702999987,[],,133.59587009999814,,,,133.5959058999979,None,,,,,,,,,,,,,,,,,,,,,,,,,,,,,,,,,,,,,,,,335,001,2026-04-01_17h59.32.359,exp_sofc,,2025.2.3,59.925811845544914,2026-04-01 17h59.32.848560 +0200,
,9,9,0,,,,clip_hund_02_sub_1,clips/clip_hund_02_sub_1.mp4,audios/clip_hund_02_sub_1.mp3,hund,sub,1,2,8300.0,NA,9900,Welche Farbe hat der Pullover der Frau?,grün,schwarz,blau,rot,2,11.213114100002713,None,,,,,,,,,,,0,9,9,8,,,,,133.69336909999765,,,,,,,,,,,,,,,,,,clip_hund_25_sub_1,clips/clip_hund_25_sub_1.mp4,audios/silence.mp3,visual,sub,True,133.69041590000052,133.69336909999765,134.10359229999813,134.30393399999957,134.30393399999957,134.30417796666396,135.55965989999822,142.73811319999731,142.621616299999,[6.76400040000226],1,142.73425130000032,142.73811319999731,142.73811319999731,142.73811319999731,153.9551950999994,2,11.213114100002713,None,,,,,,,,,,,,,,,,,,,,,,,,,,,,,,,,,,,,,,335,001,2026-04-01_17h59.32.359,exp_sofc,,2025.2.3,59.925811845544914,2026-04-01 17h59.32.848560 +0200,
,10,10,0,,,,clip_hund_06_nosub_0,clips/clip_hund_06_nosub_0.mp4,audios/clip_hund_06_nosub_0.mp3,hund,nosub,0,6,NA,NA,10860,Wie sieht das Studio aus?,unaufgeräumt,sehr ordentlich,komplett leer,stark überfüllt,3,11.366226599999209,None,,,,,,,,,,,0,10,10,2,,,,,154.07128779999766,,,,,,,,,,,,,,,,,,clip_weißt_05_sub_0,clips/clip_weißt_05_sub_0.mp4,audios/clip_weißt_05_sub_0.mp3,audiovisual,sub,True,154.06515949999812,154.07128779999766,154.456717699999,154.65591119999954,154.65591119999954,154.65676276666662,,164.5789651999985,164.45733090000067,[],3,164.57204379999894,164.5789651999985,164.5789651999985,164.5789651999985,175.9558459999971,3,11.366226599999209,None,,,,,,,,,,,,,,,,,,,,,,,,,,,,,,,,,,,,,,335,001,2026-04-01_17h59.32.359,exp_sofc,,2025.2.3,59.925811845544914,2026-04-01 17h59.32.848560 +0200,
,11,11,0,,,,clip_wurst_09_sub_1,clips/clip_wurst_09_sub_1.mp4,audios/clip_wurst_09_sub_1.mp3,wurst,sub,1,9,3666.0,NA,11267,Wer sind die alten Menschen wahrscheinlich?,Großeltern,Eltern,Geschwister,Nachbarn,None,,,,,,,,,,,,,0,11,11,10,,,,,176.08508319999964,,,,,,,,,,,,,,,,,,clip_hund_02_sub_1,clips/clip_hund_02_sub_1.mp4,audios/clip_hund_02_sub_1.mp3,audiovisual,sub,False,176.0795431000006,176.08508319999964,176.45756939999774,176.6570888999995,176.6570888999995,176.65742296666602,186.58877139999822,186.68430420000004,186.59007559999736,[9.497997500002384],,186.67693599999984,,,,186.6769725999984,None,,,,,,,,,,,,,,,,,,,,,,,,,,,,,,,,,,,,,,,,335,001,2026-04-01_17h59.32.359,exp_sofc,,2025.2.3,59.925811845544914,2026-04-01 17h59.32.848560 +0200,
,,,,,,,,,,,,,,,,,,,,,,,,,,,,,,,,,,,,,,,,,,,,,,,,,,,,,,,,,,,,,,,,,,,,,,,,,,,,,,,,,,,,,,186.6770503000007,186.68430420000004,191.77507519999926,191.6727460999973,,,,,,,,,,,,,,,,,,,,,,,,,,,,,,,,,,335,001,2026-04-01_17h59.32.359,exp_sofc,,2025.2.3,59.925811845544914,2026-04-01 17h59.32.848560 +0200,
,0,0,0,,,,,,,,,,,,,,,,,,,,,,None,None,,,,,,,,,,,,,0,0,0,0,191.77507519999926,,,,,,,,,,,,,,,,,,,,,,,,,,,,,,,,,,,,,,,,,,,,,,,clips/clip_wurst_35_nosub_0.mp4,audios/clip_wurst_35_nosub_0.mp3,audiovisual,191.77145569999993,192.1811815000001,192.3819126999988,192.3819126999988,192.38125466666705,201.9106885000001,201.68464820000008,[],201.78823369999736,201.7882737,None,201.7883026999989,201.7883269999984,None,,,,,,,,,,,,,,,,,335,001,2026-04-01_17h59.32.359,exp_sofc,,2025.2.3,59.925811845544914,2026-04-01 17h59.32.848560 +0200,
,1,0,1,,,,,,,,,,,,,,,,,,,,,,None,None,,,,,,,,,,,,,1,0,1,0,201.9106885000001,,,,,,,,,,,,,,,,,,,,,,,,,,,,,,,,,,,,,,,,,,,,,,,clips/clip_weißt_03_sub_0.mp4,audios/clip_weißt_03_sub_0.mp3,audiovisual,201.9073662999981,202.29662339999777,202.49829549999777,202.49829549999777,202.49766936666518,214.71866129999762,214.51565800000026,[],214.6059619000007,214.60604279999825,None,214.60616110000046,214.60618160000013,None,214.71866129999762,,,,,,,,,,,,,,,,335,001,2026-04-01_17h59.32.359,exp_sofc,,2025.2.3,59.925811845544914,2026-04-01 17h59.32.848560 +0200,
,2,0,2,,,,,,,,,,,,,,,,,,,,,,None,None,,,,,,,,,,,,,2,0,2,0,214.71866129999762,,,,,,,,,,,,,,,,,,,,,,,,,,,,,,,,,,,,,,,,,,,,,,,clips/clip_hund_09_sub_2.mp4,audios/clip_hund_09_sub_2.mp3,audiovisual,214.71521529999882,215.1083742999981,215.30872779999845,215.30872779999845,215.3083871666643,227.06593190000058,226.86027829999875,"[5.765479599998798, 10.607272099998227]",226.95386379999763,226.9539146999996,None,226.95396160000018,226.95398840000053,None,,,,,,,,,,,,,,,,,335,001,2026-04-01_17h59.32.359,exp_sofc,,2025.2.3,59.925811845544914,2026-04-01 17h59.32.848560 +0200,
,3,0,3,,,,,,,,,,,,,,,,,,,,,,None,None,,,,,,,,,,,,,3,0,3,0,227.06593190000058,,,,,,,,,,,,,,,,,,,,,,,,,,,,,,,,,,,,,,,,,,,,,,,clips/clip_claude_24_sub_1.mp4,audios/silence.mp3,visual,227.05995690000054,227.4718800999981,227.669672,227.65473129999737,227.6534029666657,234.08572739999727,233.8462417999981,[6.040782800002489],233.95603599999959,233.95607459999883,None,233.9561066999995,233.95612830000027,None,228.9049223999973,,,,,,,,,,,,,,,,335,001,2026-04-01_17h59.32.359,exp_sofc,,2025.2.3,59.925811845544914,2026-04-01 17h59.32.848560 +0200,
,4,0,4,,,,,,,,,,,,,,,,,,,,,,None,None,,,,,,,,,,,,,4,0,4,0,234.08572739999727,,,,,,,,,,,,,,,,,,,,,,,,,,,,,,,,,,,,,,,,,,,,,,,clips/clip_holo_03_nosub_1.mp4,audios/clip_holo_03_nosub_1.mp3,audiovisual,234.08192959999724,234.46981589999996,234.67115769999873,234.67115769999873,234.670733166666,244.41439569999784,244.2020756999991,[7.394264899998234],244.28817100000015,244.28824689999965,None,244.28829359999872,244.2883167,None,244.2019150999986,,,,,,,,,,,,,,,,335,001,2026-04-01_17h59.32.359,exp_sofc,,2025.2.3,59.925811845544914,2026-04-01 17h59.32.848560 +0200,
,5,0,5,,,,,,,,,,,,,,,,,,,,,,None,None,,,,,,,,,,,,,5,0,5,0,244.41439569999784,,,,,,,,,,,,,,,,,,,,,,,,,,,,,,,,,,,,,,,,,,,,,,,clips/clip_holo_08_nosub_2.mp4,audios/clip_holo_08_nosub_2.mp3,audiovisual,244.41086539999742,244.79890149999846,245.00005839999722,245.00005839999722,244.9997869666661,256.03850349999993,255.80601709999974,"[4.309334499997931, 9.173663300000044]",255.91379360000064,255.91384499999913,None,255.9139327999983,255.9139703999972,None,256.03850349999993,,,,,,,,,,,,,,,,335,001,2026-04-01_17h59.32.359,exp_sofc,,2025.2.3,59.925811845544914,2026-04-01 17h59.32.848560 +0200,
,6,0,6,,,,,,,,,,,,,,,,,,,,,,None,None,,,,,,,,,,,,,6,0,6,0,256.03850349999993,,,,,,,,,,,,,,,,,,,,,,,,,,,,,,,,,,,,,,,,,,,,,,,clips/clip_weißt_22_nosub_0.mp4,audios/clip_weißt_22_nosub_0.mp3,audiovisual,256.03501459999825,256.42306259999896,256.62355639999805,256.62355639999805,256.6246494666668,267.9491022999973,267.72612319999826,[],267.8233709999986,267.82341859999724,None,267.8234846999985,267.8235139999997,None,,,,,,,,,,,,,,,,,335,001,2026-04-01_17h59.32.359,exp_sofc,,2025.2.3,59.925811845544914,2026-04-01 17h59.32.848560 +0200,
,7,0,7,,,,,,,,,,,,,,,,,,,,,,None,None,,,,,,,,,,,,,7,0,7,0,267.9491022999973,,,,,,,,,,,,,,,,,,,,,,,,,,,,,,,,,,,,,,,,,,,,,,,clips/clip_holo_28_sub_0.mp4,audios/clip_holo_28_sub_0.mp3,audiovisual,267.9429719,268.3249219999998,268.52756339999905,268.52756339999905,268.52574236666646,277.2781873999993,277.0562358999996,[],277.14278719999857,277.1428252000005,None,277.142860699998,277.1428885999994,None,277.0559831999999,,,,,,,,,,,,,,,,335,001,2026-04-01_17h59.32.359,exp_sofc,,2025.2.3,59.925811845544914,2026-04-01 17h59.32.848560 +0200,
,8,0,8,,,,,,,,,,,,,,,,,,,,,,None,None,,,,,,,,,,,,,8,0,8,0,277.2781873999993,,,,,,,,,,,,,,,,,,,,,,,,,,,,,,,,,,,,,,,,,,,,,,,clips/clip_wurst_30_sub_1.mp4,audios/clip_wurst_30_sub_1.mp3,audiovisual,277.27288399999816,277.6564737999979,277.85859349999737,277.85859349999737,277.8565439666638,288.06225059999997,287.87607469999784,[],287.9612500999974,287.96133220000047,None,287.9613731999998,287.9614163999977,None,287.8758397999991,,,,,,,,,,,,,,,,335,001,2026-04-01_17h59.32.359,exp_sofc,,2025.2.3,59.925811845544914,2026-04-01 17h59.32.848560 +0200,
,9,0,9,,,,,,,,,,,,,,,,,,,,,,None,None,,,,,,,,,,,,,9,0,9,0,288.06225059999997,,,,,,,,,,,,,,,,,,,,,,,,,,,,,,,,,,,,,,,,,,,,,,,clips/clip_hund_15_nosub_1.mp4,audios/silence.mp3,visual,288.0575790999974,288.46323389999816,288.6647739999971,288.6647739999971,288.66377596666666,299.2893546999985,299.1134158999994,[4.71249330000137],299.2022840999998,299.202319,None,299.2023556999993,299.2023816000001,None,289.91636899999867,,,,,,,,,,,,,,,,335,001,2026-04-01_17h59.32.359,exp_sofc,,2025.2.3,59.925811845544914,2026-04-01 17h59.32.848560 +0200,
,10,0,10,,,,,,,,,,,,,,,,,,,,,,None,None,,,,,,,,,,,,,10,0,10,0,299.2893546999985,,,,,,,,,,,,,,,,,,,,,,,,,,,,,,,,,,,,,,,,,,,,,,,clips/clip_herz_07_nosub_2.mp4,audios/silence.mp3,visual,299.28545069999745,299.7141241999998,299.9148346999973,299.9148346999973,299.9145229666649,312.13172359999953,311.93342389999816,"[4.275071200001548, 10.70873980000033]",312.0278456999986,312.02787929999977,None,312.02791419999994,312.0279303999996,None,301.1663297999985,,,,,,,,,,,,,,,,335,001,2026-04-01_17h59.32.359,exp_sofc,,2025.2.3,59.925811845544914,2026-04-01 17h59.32.848560 +0200,
,11,0,11,,,,,,,,,,,,,,,,,,,,,,None,None,,,,,,,,,,,,,11,0,11,0,312.13172359999953,,,,,,,,,,,,,,,,,,,,,,,,,,,,,,,,,,,,,,,,,,,,,,,clips/clip_claude_20_nosub_1.mp4,audios/silence.mp3,visual,312.1268915999972,312.5423551999993,312.7438551999985,312.7438551999985,312.7432775666641,324.9704243999986,324.76126830000067,[6.47173919999841],324.8635876999979,324.86362069999814,None,324.86365079999814,324.8636710999999,None,313.99463189999733,,,,,,,,,,,,,,,,335,001,2026-04-01_17h59.32.359,exp_sofc,,2025.2.3,59.925811845544914,2026-04-01 17h59.32.848560 +0200,
,12,0,12,,,,,,,,,,,,,,,,,,,,,,None,None,,,,,,,,,,,,,12,0,12,0,324.9704243999986,,,,,,,,,,,,,,,,,,,,,,,,,,,,,,,,,,,,,,,,,,,,,,,clips/clip_hund_10_nosub_0.mp4,audios/clip_hund_10_nosub_0.mp3,audiovisual,324.9670695999994,325.37209280000025,325.57208759999776,325.57208759999776,325.57206986666665,335.32313489999797,335.104000299998,[8.055652499999269],335.19217859999844,335.19221280000056,None,335.19226979999803,335.1923035,None,335.1038697999975,,,,,,,,,,,,,,,,335,001,2026-04-01_17h59.32.359,exp_sofc,,2025.2.3,59.925811845544914,2026-04-01 17h59.32.848560 +0200,
,13,0,13,,,,,,,,,,,,,,,,,,,,,,None,None,,,,,,,,,,,,,13,0,13,0,335.32313489999797,,,,,,,,,,,,,,,,,,,,,,,,,,,,,,,,,,,,,,,,,,,,,,,clips/clip_weißt_29_sub_1.mp4,audios/clip_weißt_29_sub_1.mp3,audiovisual,335.31885129999864,335.7042965999972,335.9051545000002,335.9051545000002,335.9046470666656,347.71313109999755,347.49026909999884,[7.016530000000785],347.57481129999724,347.57484900000054,None,347.5748926999986,347.57494459999725,None,,,,,,,,,,,,,,,,,335,001,2026-04-01_17h59.32.359,exp_sofc,,2025.2.3,59.925811845544914,2026-04-01 17h59.32.848560 +0200,
,14,0,14,,,,,,,,,,,,,,,,,,,,,,2,None,6.749686900002416,None,,,,,,,,,,,14,0,14,0,347.71313109999755,,,,,,,,,,,,,,,,,,,,,,,,,,,,,,,,,,,,,,,,,,,,,,,clips/clip_herz_15_sub_0.mp4,audios/clip_herz_15_sub_0.mp3,audiovisual,347.70913839999776,348.07399499999883,348.27414449999924,348.29087309999886,348.2908111666659,360.4232978,360.30965149999975,"[6.40896900000007, 7.995139500002551]",360.41906480000034,367.1849908000004,2,367.1850419000002,367.18505989999903,None,360.30944330000057,2,360.4232978,360.4232978,360.4232978,6.749686900002416,None,,,,,,,,,,335,001,2026-04-01_17h59.32.359,exp_sofc,,2025.2.3,59.925811845544914,2026-04-01 17h59.32.848560 +0200,
,15,0,15,,,,,,,,,,,,,,,,,,,,,,None,None,,,,,,,,,,,,,15,0,15,0,367.30347679999977,,,,,,,,,,,,,,,,,,,,,,,,,,,,,,,,,,,,,,,,,,,,,,,clips/clip_lied_21_sub_2.mp4,audios/silence.mp3,visual,367.29661439999836,367.68556510000053,367.8875539999972,367.8875539999972,367.8860327666664,379.62705509999796,379.4040750999993,"[5.283854900000733, 10.621286800000235]",379.4992564999993,379.49929019999763,None,379.49931899999865,379.4993350000004,None,369.1388614999996,,,,,,,,,,,,,,,,335,001,2026-04-01_17h59.32.359,exp_sofc,,2025.2.3,59.925811845544914,2026-04-01 17h59.32.848560 +0200,
,16,0,16,,,,,,,,,,,,,,,,,,,,,,4,None,3.5193798999971477,None,,,,,,,,,,,16,0,16,0,379.62705509999796,,,,,,,,,,,,,,,,,,,,,,,,,,,,,,,,,,,,,,,,,,,,,,,clips/clip_wurst_32_sub_1.mp4,audios/clip_wurst_32_sub_1.mp3,audiovisual,379.62332089999836,380.00532380000004,380.20526849999806,380.20526849999806,380.2049910666649,390.94112529999984,390.8382447999975,[7.422805700000026],390.93766010000036,394.4688915000006,4,394.46894269999757,394.4689603000006,None,390.838090199999,4,390.94112529999984,390.94112529999984,390.94112529999984,3.5193798999971477,None,,,,,,,,,,335,001,2026-04-01_17h59.32.359,exp_sofc,,2025.2.3,59.925811845544914,2026-04-01 17h59.32.848560 +0200,
,17,0,17,,,,,,,,,,,,,,,,,,,,,,None,None,,,,,,,,,,,,,17,0,17,0,394.581139599999,,,,,,,,,,,,,,,,,,,,,,,,,,,,,,,,,,,,,,,,,,,,,,,clips/clip_holo_19_nosub_1.mp4,audios/silence.mp3,visual,394.5758391999989,394.98158539999713,395.1827487999981,395.1827487999981,395.1819993666652,405.4097339999971,405.2151174999999,[6.466583699999319],405.3173734999982,405.3174059999983,None,405.31743189999906,405.3174469000005,None,396.4339996999988,,,,,,,,,,,,,,,,335,001,2026-04-01_17h59.32.359,exp_sofc,,2025.2.3,59.925811845544914,2026-04-01 17h59.32.848560 +0200,
,18,0,18,,,,,,,,,,,,,,,,,,,,,,None,None,,,,,,,,,,,,,18,0,18,0,405.4097339999971,,,,,,,,,,,,,,,,,,,,,,,,,,,,,,,,,,,,,,,,,,,,,,,clips/clip_wurst_11_nosub_0.mp4,audios/silence.mp3,visual,405.40609810000024,405.82368519999727,406.02398229999744,406.02398229999744,406.0238736666654,418.25164869999935,418.0438895999978,[],418.13257169999997,418.13261319999947,None,418.1326819999995,418.1327218999977,None,407.2759060999997,,,,,,,,,,,,,,,,335,001,2026-04-01_17h59.32.359,exp_sofc,,2025.2.3,59.925811845544914,2026-04-01 17h59.32.848560 +0200,
,19,0,19,,,,,,,,,,,,,,,,,,,,,,None,None,,,,,,,,,,,,,19,0,19,0,418.25164869999935,,,,,,,,,,,,,,,,,,,,,,,,,,,,,,,,,,,,,,,,,,,,,,,clips/clip_lied_20_nosub_2.mp4,audios/clip_lied_20_nosub_2.mp3,audiovisual,418.24823040000047,418.6362472999972,418.836753399999,418.836753399999,418.8367340666666,429.75084229999993,429.54157829999895,"[3.849416899996868, 8.547099999999773]",429.6280465999989,429.62808399999994,None,429.6281199999976,429.6281756999997,None,,,,,,,,,,,,,,,,,335,001,2026-04-01_17h59.32.359,exp_sofc,,2025.2.3,59.925811845544914,2026-04-01 17h59.32.848560 +0200,
,20,0,20,,,,,,,,,,,,,,,,,,,,,,None,None,,,,,,,,,,,,,20,0,20,0,429.75084229999993,,,,,,,,,,,,,,,,,,,,,,,,,,,,,,,,,,,,,,,,,,,,,,,clips/clip_claude_14_nosub_0.mp4,audios/silence.mp3,visual,429.74568139999974,430.1348853999989,430.33562840000013,430.33562840000013,430.3355726666671,441.63497519999873,441.43680329999916,"[3.1028516999977, 8.661003699999128]",441.5302140999993,441.53025290000005,None,441.5303383999999,441.5303657999975,None,431.5871748999998,,,,,,,,,,,,,,,,335,001,2026-04-01_17h59.32.359,exp_sofc,,2025.2.3,59.925811845544914,2026-04-01 17h59.32.848560 +0200,
,21,0,21,,,,,,,,,,,,,,,,,,,,,,None,None,,,,,,,,,,,,,21,0,21,0,441.63497519999873,,,,,,,,,,,,,,,,,,,,,,,,,,,,,,,,,,,,,,,,,,,,,,,clips/clip_herz_13_sub_0.mp4,audios/silence.mp3,visual,441.630373699998,442.04522559999896,442.2464598000006,442.2464598000006,442.2460574666659,453.6550869999992,453.44688979999773,[7.801211000001786],453.53673349999735,453.5367735,None,453.53681139999753,453.5368278999995,None,443.4971657999995,,,,,,,,,,,,,,,,335,001,2026-04-01_17h59.32.359,exp_sofc,,2025.2.3,59.925811845544914,2026-04-01 17h59.32.848560 +0200,
,22,0,22,,,,,,,,,,,,,,,,,,,,,,None,None,,,,,,,,,,,,,22,0,22,0,453.6550869999992,,,,,,,,,,,,,,,,,,,,,,,,,,,,,,,,,,,,,,,,,,,,,,,clips/clip_hund_01_nosub_0.mp4,audios/clip_hund_01_nosub_0.mp3,audiovisual,453.65106580000065,454.0393413999991,454.2400792999979,454.2400792999979,454.23966006666546,465.25061619999906,465.04358610000054,[],465.1434869000004,465.1435326999999,None,465.14356860000044,465.14359329999934,None,465.25061619999906,,,,,,,,,,,,,,,,335,001,2026-04-01_17h59.32.359,exp_sofc,,2025.2.3,59.925811845544914,2026-04-01 17h59.32.848560 +0200,
,23,0,23,,,,,,,,,,,,,,,,,,,,,,4,None,3.068749199999729,None,,,,,,,,,,,23,0,23,0,465.25061619999906,,,,,,,,,,,,,,,,,,,,,,,,,,,,,,,,,,,,,,,,,,,,,,,clips/clip_holo_14_sub_0.mp4,audios/silence.mp3,visual,465.246159899998,465.65151440000045,465.85214070000075,465.85214070000075,465.8518266666654,475.9851130999996,475.8845970000002,[],475.98139829999855,479.064182099999,4,479.0642345999986,479.0642544000002,None,467.1037249000001,4,475.9851130999996,475.9851130999996,475.9851130999996,3.068749199999729,None,,,,,,,,,,335,001,2026-04-01_17h59.32.359,exp_sofc,,2025.2.3,59.925811845544914,2026-04-01 17h59.32.848560 +0200,
,24,0,24,,,,,,,,,,,,,,,,,,,,,,None,None,,,,,,,,,,,,,24,0,24,0,479.1635924000002,,,,,,,,,,,,,,,,,,,,,,,,,,,,,,,,,,,,,,,,,,,,,,,clips/clip_holo_26_sub_2.mp4,audios/silence.mp3,visual,479.16080879999936,479.5740704999989,479.77377200000046,479.77377200000046,479.7736998666662,489.1686039999986,488.9713045999997,[],489.0630170999975,489.0630493999997,None,489.06307670000024,489.0630908999992,None,481.0257461000001,,,,,,,,,,,,,,,,335,001,2026-04-01_17h59.32.359,exp_sofc,,2025.2.3,59.925811845544914,2026-04-01 17h59.32.848560 +0200,
,25,0,25,,,,,,,,,,,,,,,,,,,,,,None,None,,,,,,,,,,,,,25,0,25,0,489.1686039999986,,,,,,,,,,,,,,,,,,,,,,,,,,,,,,,,,,,,,,,,,,,,,,,clips/clip_wurst_22_nosub_0.mp4,audios/silence.mp3,visual,489.16553609999755,489.56389729999864,489.7653107999977,489.7653107999977,489.7642923666647,501.6646084999993,501.46575929999744,[],501.55283919999783,501.55300999999963,None,501.5531252999972,501.5531473999981,None,491.0160547999985,,,,,,,,,,,,,,,,335,001,2026-04-01_17h59.32.359,exp_sofc,,2025.2.3,59.925811845544914,2026-04-01 17h59.32.848560 +0200,
,26,0,26,,,,,,,,,,,,,,,,,,,,,,None,None,,,,,,,,,,,,,26,0,26,0,501.6646084999993,,,,,,,,,,,,,,,,,,,,,,,,,,,,,,,,,,,,,,,,,,,,,,,clips/clip_holo_02_sub_2.mp4,audios/clip_holo_02_sub_2.mp3,audiovisual,501.6606073999974,502.05933019999793,502.2588455999976,502.2588455999976,502.2586142666662,513.6435521999992,513.4597014999999,"[3.9481039000020246, 8.283965900001931]",513.5466230999991,513.5466572000005,None,513.546688399998,513.5467126999974,None,,,,,,,,,,,,,,,,,335,001,2026-04-01_17h59.32.359,exp_sofc,,2025.2.3,59.925811845544914,2026-04-01 17h59.32.848560 +0200,
,27,0,27,,,,,,,,,,,,,,,,,,,,,,None,None,,,,,,,,,,,,,27,0,27,0,513.6435521999992,,,,,,,,,,,,,,,,,,,,,,,,,,,,,,,,,,,,,,,,,,,,,,,clips/clip_dampf_02_nosub_1.mp4,audios/silence.mp3,visual,513.6394464000005,514.052253599999,514.2528225999995,514.2528225999995,514.2524339666672,523.7860873999998,523.5835659000004,[4.819676499999332],523.6780743999989,523.6781257000002,None,523.6782032999981,523.6782233999984,None,515.5042713000003,,,,,,,,,,,,,,,,335,001,2026-04-01_17h59.32.359,exp_sofc,,2025.2.3,59.925811845544914,2026-04-01 17h59.32.848560 +0200,
,28,0,28,,,,,,,,,,,,,,,,,,,,,,None,None,,,,,,,,,,,,,28,0,28,0,523.7860873999998,,,,,,,,,,,,,,,,,,,,,,,,,,,,,,,,,,,,,,,,,,,,,,,clips/clip_wurst_13_sub_0.mp4,audios/silence.mp3,visual,523.7823819000005,524.1927983999994,524.3936174999981,524.3936174999981,524.3927778666659,534.2168199000007,534.0249767999994,[],534.1211322999989,534.1211708999981,None,534.1212599999999,534.1213016999973,None,525.6455031000005,,,,,,,,,,,,,,,,335,001,2026-04-01_17h59.32.359,exp_sofc,,2025.2.3,59.925811845544914,2026-04-01 17h59.32.848560 +0200,
,29,0,29,,,,,,,,,,,,,,,,,,,,,,None,None,,,,,,,,,,,,,29,0,29,0,534.2168199000007,,,,,,,,,,,,,,,,,,,,,,,,,,,,,,,,,,,,,,,,,,,,,,,clips/clip_wurst_24_sub_1.mp4,audios/silence.mp3,visual,534.2111044999983,534.6331198999978,534.8340993999991,534.8340993999991,534.8339665666647,546.362820899998,546.1516697000006,[],546.2502556,546.2502948000001,None,546.250328099999,546.2503467999995,None,536.0854953999988,,,,,,,,,,,,,,,,335,001,2026-04-01_17h59.32.359,exp_sofc,,2025.2.3,59.925811845544914,2026-04-01 17h59.32.848560 +0200,
,30,0,30,,,,,,,,,,,,,,,,,,,,,,None,None,,,,,,,,,,,,,30,0,30,0,546.362820899998,,,,,,,,,,,,,,,,,,,,,,,,,,,,,,,,,,,,,,,,,,,,,,,clips/clip_wurst_19_nosub_0.mp4,audios/clip_wurst_19_nosub_0.mp3,audiovisual,546.3586058000001,546.7635114999975,546.9655791999976,546.9655791999976,546.963589166666,558.1823621999974,557.9808051,[],558.0728574999994,558.0729073000002,None,558.0729425999998,558.0729601999992,None,557.9806131000005,,,,,,,,,,,,,,,,335,001,2026-04-01_17h59.32.359,exp_sofc,,2025.2.3,59.925811845544914,2026-04-01 17h59.32.848560 +0200,
,31,0,31,,,,,,,,,,,,,,,,,,,,,,None,None,,,,,,,,,,,,,31,0,31,0,558.1823621999974,,,,,,,,,,,,,,,,,,,,,,,,,,,,,,,,,,,,,,,,,,,,,,,clips/clip_lied_18_sub_2.mp4,audios/clip_lied_18_sub_2.mp3,audiovisual,558.1788452000001,558.5732988999989,558.7739188999985,558.7739188999985,558.7735620666647,569.6803331999981,569.4577226000001,"[5.520213799998601, 7.618065299997397]",569.5644188999977,569.5644687999993,None,569.5644992999987,569.5645181999971,None,,,,,,,,,,,,,,,,,335,001,2026-04-01_17h59.32.359,exp_sofc,,2025.2.3,59.925811845544914,2026-04-01 17h59.32.848560 +0200,
,32,0,32,,,,,,,,,,,,,,,,,,,,,,None,None,,,,,,,,,,,,,32,0,32,0,569.6803331999981,,,,,,,,,,,,,,,,,,,,,,,,,,,,,,,,,,,,,,,,,,,,,,,clips/clip_wurst_01_sub_0.mp4,audios/silence.mp3,visual,569.676067299999,570.0746431000007,570.2754174999973,570.2754174999973,570.2753786666656,580.4191668999993,580.207913899998,[],580.3179151000004,580.3179600000003,None,580.3179963999974,580.3180159000003,None,571.5269652999996,,,,,,,,,,,,,,,,335,001,2026-04-01_17h59.32.359,exp_sofc,,2025.2.3,59.925811845544914,2026-04-01 17h59.32.848560 +0200,
,33,0,33,,,,,,,,,,,,,,,,,,,,,,None,None,,,,,,,,,,,,,33,0,33,0,580.4191668999993,,,,,,,,,,,,,,,,,,,,,,,,,,,,,,,,,,,,,,,,,,,,,,,clips/clip_claude_22_nosub_2.mp4,audios/silence.mp3,visual,580.4149856999975,580.820240099998,581.0208043999992,581.0208043999992,581.0205044666657,591.9698690000005,591.7721029999993,[8.03832329999932],591.8652559000002,591.8653322999999,None,591.8653811999975,591.8653981999996,None,582.2727946999985,,,,,,,,,,,,,,,,335,001,2026-04-01_17h59.32.359,exp_sofc,,2025.2.3,59.925811845544914,2026-04-01 17h59.32.848560 +0200,
,34,0,34,,,,,,,,,,,,,,,,,,,,,,2,None,6.0344277000003785,None,,,,,,,,,,,34,0,34,0,591.9698690000005,,,,,,,,,,,,,,,,,,,,,,,,,,,,,,,,,,,,,,,,,,,,,,,clips/clip_hund_23_sub_1.mp4,audios/silence.mp3,visual,591.9649419999987,592.3802582999997,592.5805766999983,592.5805766999983,592.581592566665,603.6242767000003,603.5153565,[],603.6204249000002,609.6680941999984,2,609.6681742000001,609.6682008999996,None,593.8338272000001,1,603.6242767000003,603.6242767000003,603.6242767000003,6.0344277000003785,None,,,,,,,,,,335,001,2026-04-01_17h59.32.359,exp_sofc,,2025.2.3,59.925811845544914,2026-04-01 17h59.32.848560 +0200,
,35,0,35,,,,,,,,,,,,,,,,,,,,,,None,None,,,,,,,,,,,,,35,0,35,0,609.7789095999979,,,,,,,,,,,,,,,,,,,,,,,,,,,,,,,,,,,,,,,,,,,,,,,clips/clip_claude_04_sub_2.mp4,audios/clip_claude_04_sub_2.mp3,audiovisual,609.7747978999978,610.1804512999988,610.3812733999985,610.3812733999985,610.3806162666663,619.6014871000007,619.4128982999973,[8.50525479999851],619.5061146999979,619.5061547999976,None,619.5061834000007,619.5061978999984,None,619.4127608999988,,,,,,,,,,,,,,,,335,001,2026-04-01_17h59.32.359,exp_sofc,,2025.2.3,59.925811845544914,2026-04-01 17h59.32.848560 +0200,
,36,0,36,,,,,,,,,,,,,,,,,,,,,,None,None,,,,,,,,,,,,,36,0,36,0,619.6014871000007,,,,,,,,,,,,,,,,,,,,,,,,,,,,,,,,,,,,,,,,,,,,,,,clips/clip_hund_11_sub_1.mp4,audios/silence.mp3,visual,619.5979100000004,620.0199656000004,620.2208599000005,620.2208599000005,620.220354866666,630.1359436999992,629.9516364999981,[8.447145699999965],630.0411401999991,630.0411825999981,None,630.0412236999982,630.0412445999973,None,621.4548696999991,,,,,,,,,,,,,,,,335,001,2026-04-01_17h59.32.359,exp_sofc,,2025.2.3,59.925811845544914,2026-04-01 17h59.32.848560 +0200,
,37,0,37,,,,,,,,,,,,,,,,,,,,,,None,None,,,,,,,,,,,,,37,0,37,0,630.1359436999992,,,,,,,,,,,,,,,,,,,,,,,,,,,,,,,,,,,,,,,,,,,,,,,clips/clip_wurst_28_nosub_1.mp4,audios/silence.mp3,visual,630.1328036999985,630.5539299999982,630.7546331999984,630.7546331999984,630.7539680666671,641.2838635999979,641.0879437000003,[],641.1905225999981,641.1905623999992,None,641.1905986999991,641.1906187999994,None,632.0061499999974,,,,,,,,,,,,,,,,335,001,2026-04-01_17h59.32.359,exp_sofc,,2025.2.3,59.925811845544914,2026-04-01 17h59.32.848560 +0200,
,38,0,38,,,,,,,,,,,,,,,,,,,,,,None,None,,,,,,,,,,,,,38,0,38,0,641.2838635999979,,,,,,,,,,,,,,,,,,,,,,,,,,,,,,,,,,,,,,,,,,,,,,,clips/clip_herz_12_nosub_0.mp4,audios/silence.mp3,visual,641.2799591999974,641.6966314999991,641.8968309999982,641.8968309999982,641.8967840666667,651.1807216999987,650.9949018000007,[5.785586399997555],651.0847872999984,651.0848408999991,None,651.0849366999973,651.0849858000001,None,643.1497679999993,,,,,,,,,,,,,,,,335,001,2026-04-01_17h59.32.359,exp_sofc,,2025.2.3,59.925811845544914,2026-04-01 17h59.32.848560 +0200,
,39,0,39,,,,,,,,,,,,,,,,,,,,,,None,None,,,,,,,,,,,,,39,0,39,0,651.1807216999987,,,,,,,,,,,,,,,,,,,,,,,,,,,,,,,,,,,,,,,,,,,,,,,clips/clip_holo_13_sub_1.mp4,audios/silence.mp3,visual,651.1767002999986,651.5985690999987,651.7991619999993,651.7991619999993,651.7987930666643,663.7951659999999,663.6176567999973,[4.333946899998409],663.7004273999992,663.7004687999979,None,663.7005179999978,663.7005710999983,None,653.0514401,,,,,,,,,,,,,,,,335,001,2026-04-01_17h59.32.359,exp_sofc,,2025.2.3,59.925811845544914,2026-04-01 17h59.32.848560 +0200,
,40,0,40,,,,,,,,,,,,,,,,,,,,,,None,None,,,,,,,,,,,,,40,0,40,0,663.7951659999999,,,,,,,,,,,,,,,,,,,,,,,,,,,,,,,,,,,,,,,,,,,,,,,clips/clip_lied_22_nosub_1.mp4,audios/clip_lied_22_nosub_1.mp3,audiovisual,663.7915092999974,664.2019221999981,664.403285299999,664.403285299999,664.4028372666655,675.1079083000004,674.9362144000006,[6.021232700000837],675.0265742999982,675.0266334000007,None,675.0266716999977,675.0267017999977,None,674.9359853999995,,,,,,,,,,,,,,,,335,001,2026-04-01_17h59.32.359,exp_sofc,,2025.2.3,59.925811845544914,2026-04-01 17h59.32.848560 +0200,
,41,0,41,,,,,,,,,,,,,,,,,,,,,,None,None,,,,,,,,,,,,,41,0,41,0,675.1079083000004,,,,,,,,,,,,,,,,,,,,,,,,,,,,,,,,,,,,,,,,,,,,,,,clips/clip_lied_16_sub_2.mp4,audios/silence.mp3,visual,675.1046796999981,675.5358531999991,675.7364751999994,675.7364751999994,675.7362128666648,686.5199671999981,686.320128899999,[3.8026938999973936],686.4210684999998,686.4211055999986,None,686.4211811999994,686.4212215999978,None,676.9881462999983,,,,,,,,,,,,,,,,335,001,2026-04-01_17h59.32.359,exp_sofc,,2025.2.3,59.925811845544914,2026-04-01 17h59.32.848560 +0200,
,42,0,42,,,,,,,,,,,,,,,,,,,,,,None,None,,,,,,,,,,,,,42,0,42,0,686.5199671999981,,,,,,,,,,,,,,,,,,,,,,,,,,,,,,,,,,,,,,,,,,,,,,,clips/clip_herz_11_sub_0.mp4,audios/silence.mp3,visual,686.5160632999978,686.9292057999992,687.1291467999981,687.1291467999981,687.1288615666638,696.6495154999975,696.4267710999993,[5.072139399999287],696.5157669999971,696.5158023999975,None,696.5158532999994,696.5158699999993,None,688.3817675999999,,,,,,,,,,,,,,,,335,001,2026-04-01_17h59.32.359,exp_sofc,,2025.2.3,59.925811845544914,2026-04-01 17h59.32.848560 +0200,
,43,0,43,,,,,,,,,,,,,,,,,,,,,,None,None,,,,,,,,,,,,,43,0,43,0,696.6495154999975,,,,,,,,,,,,,,,,,,,,,,,,,,,,,,,,,,,,,,,,,,,,,,,clips/clip_hund_12_sub_1.mp4,audios/clip_hund_12_sub_1.mp3,audiovisual,696.6458338999983,697.0281634999992,697.2281967999988,697.2281967999988,697.2279195666672,708.6123139999982,708.4461536999988,[9.925166400000307],708.5209826999999,708.5210193999992,None,708.5210554999976,708.5210755999979,None,708.6123139999982,,,,,,,,,,,,,,,,335,001,2026-04-01_17h59.32.359,exp_sofc,,2025.2.3,59.925811845544914,2026-04-01 17h59.32.848560 +0200,
,44,0,44,,,,,,,,,,,,,,,,,,,,,,1,None,3.5091122000012547,None,,,,,,,,,,,44,0,44,0,708.6123139999982,,,,,,,,,,,,,,,,,,,,,,,,,,,,,,,,,,,,,,,,,,,,,,,clips/clip_wurst_14_sub_1.mp4,audios/silence.mp3,visual,708.6095244999997,709.0308697,709.2305908999988,709.2305908999988,709.2303827666658,719.361327999999,719.2640331999974,[7.984963700000662],719.3574766999991,722.8771135999996,1,722.8771822999988,722.8772100999995,None,710.4821066000004,1,719.361327999999,719.361327999999,719.361327999999,3.5091122000012547,None,,,,,,,,,,335,001,2026-04-01_17h59.32.359,exp_sofc,,2025.2.3,59.925811845544914,2026-04-01 17h59.32.848560 +0200,
,45,0,45,,,,,,,,,,,,,,,,,,,,,,None,None,,,,,,,,,,,,,45,0,45,0,723.0058843000006,,,,,,,,,,,,,,,,,,,,,,,,,,,,,,,,,,,,,,,,,,,,,,,clips/clip_claude_10_sub_0.mp4,audios/clip_claude_10_sub_0.mp3,audiovisual,723.001967199998,723.3775367999988,723.5779054999985,723.5779054999985,723.5774336666657,735.0035155000005,734.7950219999984,[],734.8930677999997,734.8930991999987,None,734.8931267000007,734.8931424999973,None,734.7948471999989,,,,,,,,,,,,,,,,335,001,2026-04-01_17h59.32.359,exp_sofc,,2025.2.3,59.925811845544914,2026-04-01 17h59.32.848560 +0200,
,46,0,46,,,,,,,,,,,,,,,,,,,,,,None,None,,,,,,,,,,,,,46,0,46,0,735.0035155000005,,,,,,,,,,,,,,,,,,,,,,,,,,,,,,,,,,,,,,,,,,,,,,,clips/clip_holo_17_sub_0.mp4,audios/clip_holo_17_sub_0.mp3,audiovisual,734.9998916999975,735.4046272999985,735.6058032999972,735.6058032999972,735.6053818666662,745.6273744999999,745.4372766999986,[],745.5204028999979,745.5204440999987,None,745.520485099998,745.5205160999976,None,745.4371054999974,,,,,,,,,,,,,,,,335,001,2026-04-01_17h59.32.359,exp_sofc,,2025.2.3,59.925811845544914,2026-04-01 17h59.32.848560 +0200,
,47,0,47,,,,,,,,,,,,,,,,,,,,,,None,None,,,,,,,,,,,,,47,0,47,0,745.6273744999999,,,,,,,,,,,,,,,,,,,,,,,,,,,,,,,,,,,,,,,,,,,,,,,clips/clip_wurst_08_sub_1.mp4,audios/clip_wurst_08_sub_1.mp3,audiovisual,745.6244250999989,746.0288961000006,746.229327099998,746.229327099998,746.2290935666645,754.9333702000004,754.7598223999994,[5.615559199999552],754.8401804999994,754.8402877999979,None,754.8403435,754.8403607999971,None,754.7596014999981,,,,,,,,,,,,,,,,335,001,2026-04-01_17h59.32.359,exp_sofc,,2025.2.3,59.925811845544914,2026-04-01 17h59.32.848560 +0200,
,48,0,48,,,,,,,,,,,,,,,,,,,,,,None,None,,,,,,,,,,,,,48,0,48,0,754.9333702000004,,,,,,,,,,,,,,,,,,,,,,,,,,,,,,,,,,,,,,,,,,,,,,,clips/clip_holo_24_sub_2.mp4,audios/silence.mp3,visual,754.9290280999994,755.3435346999977,755.5446257000003,755.5446257000003,755.5444179666667,765.5679156999977,765.3760177999975,"[7.208537699996668, 9.910079099998256]",765.4660989000004,765.4661354999989,None,765.4661903999986,765.4662585999977,None,756.7974042999995,,,,,,,,,,,,,,,,335,001,2026-04-01_17h59.32.359,exp_sofc,,2025.2.3,59.925811845544914,2026-04-01 17h59.32.848560 +0200,
,49,0,49,,,,,,,,,,,,,,,,,,,,,,4,None,7.249272900000506,None,,,,,,,,,,,49,0,49,0,765.5679156999977,,,,,,,,,,,,,,,,,,,,,,,,,,,,,,,,,,,,,,,,,,,,,,,clips/clip_hund_35_nosub_0.mp4,audios/silence.mp3,visual,765.5620753000003,765.9673021999988,766.167852999999,766.167852999999,766.1676938666644,776.6816390999993,776.5840223999985,[],776.6778510999975,783.9371121999975,4,783.9371601999992,783.9371778999994,None,767.4197578999992,4,776.6816390999993,776.6816390999993,776.6816390999993,7.249272900000506,None,,,,,,,,,,335,001,2026-04-01_17h59.32.359,exp_sofc,,2025.2.3,59.925811845544914,2026-04-01 17h59.32.848560 +0200,
,50,0,50,,,,,,,,,,,,,,,,,,,,,,None,None,,,,,,,,,,,,,50,0,50,0,784.0463189999973,,,,,,,,,,,,,,,,,,,,,,,,,,,,,,,,,,,,,,,,,,,,,,,clips/clip_holo_21_sub_1.mp4,audios/clip_holo_21_sub_1.mp3,audiovisual,784.0422225000002,784.4475768999982,784.6485183999976,784.6485183999976,784.6485757666671,795.0583050999994,794.8487853000006,[4.354246500002773],794.9565266999998,794.9565685999987,None,794.9566049999994,794.9566276000005,None,,,,,,,,,,,,,,,,,335,001,2026-04-01_17h59.32.359,exp_sofc,,2025.2.3,59.925811845544914,2026-04-01 17h59.32.848560 +0200,
,51,0,51,,,,,,,,,,,,,,,,,,,,,,None,None,,,,,,,,,,,,,51,0,51,0,795.0583050999994,,,,,,,,,,,,,,,,,,,,,,,,,,,,,,,,,,,,,,,,,,,,,,,clips/clip_wurst_05_nosub_0.mp4,audios/clip_wurst_05_nosub_0.mp3,audiovisual,795.0542365000001,795.4593042999986,795.6596714000007,795.6596714000007,795.6593546666666,804.5852477999979,804.3669200000004,[],804.4628620000003,804.4628950999977,None,804.4629316999999,804.4629530999991,None,,,,,,,,,,,,,,,,,335,001,2026-04-01_17h59.32.359,exp_sofc,,2025.2.3,59.925811845544914,2026-04-01 17h59.32.848560 +0200,
,52,0,52,,,,,,,,,,,,,,,,,,,,,,None,None,,,,,,,,,,,,,52,0,52,0,804.5852477999979,,,,,,,,,,,,,,,,,,,,,,,,,,,,,,,,,,,,,,,,,,,,,,,clips/clip_lied_07_nosub_1.mp4,audios/clip_lied_07_nosub_1.mp3,audiovisual,804.5812587,804.9740211999997,805.1753669999998,805.1753669999998,805.1748234666668,814.4118815999973,814.1883976999998,[4.448113700000249],814.2847151999995,814.2847757999989,None,814.2848083999997,814.2848262999978,None,814.1882272999974,,,,,,,,,,,,,,,,335,001,2026-04-01_17h59.32.359,exp_sofc,,2025.2.3,59.925811845544914,2026-04-01 17h59.32.848560 +0200,
,53,0,53,,,,,,,,,,,,,,,,,,,,,,None,None,,,,,,,,,,,,,53,0,53,0,814.4118815999973,,,,,,,,,,,,,,,,,,,,,,,,,,,,,,,,,,,,,,,,,,,,,,,clips/clip_holo_12_nosub_1.mp4,audios/clip_holo_12_nosub_1.mp3,audiovisual,814.4084389999989,814.7892541000001,814.9902187999978,814.9902187999978,814.9901348666647,825.2414417999971,825.0219418999986,[8.371790799999872],825.1206507999996,825.1206988999984,None,825.1207402,825.1207603000003,None,825.0218112999974,,,,,,,,,,,,,,,,335,001,2026-04-01_17h59.32.359,exp_sofc,,2025.2.3,59.925811845544914,2026-04-01 17h59.32.848560 +0200,
,54,0,54,,,,,,,,,,,,,,,,,,,,,,4,None,6.433346600002551,None,,,,,,,,,,,54,0,54,0,825.2414417999971,,,,,,,,,,,,,,,,,,,,,,,,,,,,,,,,,,,,,,,,,,,,,,,clips/clip_hund_17_sub_1.mp4,audios/clip_hund_17_sub_1.mp3,audiovisual,825.2377854000006,825.6230480999984,825.8233604999987,825.8233604999987,825.8232940666642,838.2190606000004,838.1285623999975,[10.357096699997783],838.2151379999996,844.6633206000006,4,844.663383799998,844.6634087999992,None,,4,838.2190606000004,838.2190606000004,838.2190606000004,6.433346600002551,None,,,,,,,,,,335,001,2026-04-01_17h59.32.359,exp_sofc,,2025.2.3,59.925811845544914,2026-04-01 17h59.32.848560 +0200,
,55,0,55,,,,,,,,,,,,,,,,,,,,,,None,None,,,,,,,,,,,,,55,0,55,0,844.7725981999974,,,,,,,,,,,,,,,,,,,,,,,,,,,,,,,,,,,,,,,,,,,,,,,clips/clip_holo_01_nosub_1.mp4,audios/silence.mp3,visual,844.7675562999975,845.1732869000007,845.3739433999981,845.3739433999981,845.3737284666643,854.7847602000002,854.5713409999989,[4.418920899999648],854.6719854999974,854.6720170999979,None,854.672045299998,854.6720609999975,None,846.6257822000007,,,,,,,,,,,,,,,,335,001,2026-04-01_17h59.32.359,exp_sofc,,2025.2.3,59.925811845544914,2026-04-01 17h59.32.848560 +0200,
,56,0,56,,,,,,,,,,,,,,,,,,,,,,None,None,,,,,,,,,,,,,56,0,56,0,854.7847602000002,,,,,,,,,,,,,,,,,,,,,,,,,,,,,,,,,,,,,,,,,,,,,,,clips/clip_weißt_25_nosub_1.mp4,audios/clip_weißt_25_nosub_1.mp3,audiovisual,854.7811075999998,855.1863775999991,855.3866920999972,855.3866920999972,855.3861754666652,867.6191736999972,867.4134897999975,[5.211468700003024],867.5181928999991,867.5182375999975,None,867.5182759999989,867.5182996999974,None,867.4133199999997,,,,,,,,,,,,,,,,335,001,2026-04-01_17h59.32.359,exp_sofc,,2025.2.3,59.925811845544914,2026-04-01 17h59.32.848560 +0200,
,57,0,57,,,,,,,,,,,,,,,,,,,,,,3,None,4.312350899999728,None,,,,,,,,,,,57,0,57,0,867.6191736999972,,,,,,,,,,,,,,,,,,,,,,,,,,,,,,,,,,,,,,,,,,,,,,,clips/clip_hund_16_nosub_1.mp4,audios/silence.mp3,visual,867.6134233999983,868.0224821999982,868.2235930999996,868.2235930999996,868.2231272666652,879.1997897999972,879.0899704999974,[],879.1964516000007,883.5247784999992,3,883.5248436999973,883.5248742999975,None,869.4751854999995,3,879.1997897999972,879.1997897999972,879.1997897999972,4.312350899999728,None,,,,,,,,,,335,001,2026-04-01_17h59.32.359,exp_sofc,,2025.2.3,59.925811845544914,2026-04-01 17h59.32.848560 +0200,
,58,0,58,,,,,,,,,,,,,,,,,,,,,,None,None,,,,,,,,,,,,,58,0,58,0,883.6179679999987,,,,,,,,,,,,,,,,,,,,,,,,,,,,,,,,,,,,,,,,,,,,,,,clips/clip_hund_24_nosub_1.mp4,audios/silence.mp3,visual,883.6150162999984,884.0333181999995,884.2338686999974,884.2338686999974,884.233787866666,896.4514820000004,896.2526340999975,[8.342774500000814],896.3502410999972,896.3502846999982,None,896.3503119999987,896.3503277999989,None,885.4858824000003,,,,,,,,,,,,,,,,335,001,2026-04-01_17h59.32.359,exp_sofc,,2025.2.3,59.925811845544914,2026-04-01 17h59.32.848560 +0200,
,59,0,59,,,,,,,,,,,,,,,,,,,,,,3,None,8.619398499999079,None,,,,,,,,,,,59,0,59,0,896.4514820000004,,,,,,,,,,,,,,,,,,,,,,,,,,,,,,,,,,,,,,,,,,,,,,,clips/clip_hund_05_sub_0.mp4,audios/silence.mp3,visual,896.4468345999994,896.8619727999976,897.0624194999982,897.0624194999982,897.061858866666,908.1800360999987,908.079386999998,[4.14332529999956],908.1764050999991,916.8017278999978,3,916.8017861999979,1036.8050397000006,None,898.3140258999993,4,908.1800360999987,908.1800360999987,908.1800360999987,8.619398499999079,None,916.8176950999987,916.8176950999987,916.8176950999987,1036.9161765999997,1036.9161765999997,,,,,335,001,2026-04-01_17h59.32.359,exp_sofc,,2025.2.3,59.925811845544914,2026-04-01 17h59.32.848560 +0200,
,60,0,60,,,,,,,,,,,,,,,,,,,,,,None,None,,,,,,,,,,,,,60,0,60,0,1036.9161765999997,,,,,,,,,,,,,,,,,,,,,,,,,,,,,,,,,,,,,,,,,,,,,,,clips/clip_weißt_23_sub_1.mp4,audios/silence.mp3,visual,1036.9117049999986,1037.3170709999977,1037.5185542,1037.5185542,1037.5180062666661,1049.1364259000002,1048.9367633000002,[8.471426000000065],1049.0330964999994,1049.0331308999994,None,1049.0331597000004,1049.0331759999972,None,1038.7694023999975,,,,,,,,,,,,,,,,335,001,2026-04-01_17h59.32.359,exp_sofc,,2025.2.3,59.925811845544914,2026-04-01 17h59.32.848560 +0200,
,61,0,61,,,,,,,,,,,,,,,,,,,,,,None,None,,,,,,,,,,,,,61,0,61,0,1049.1364259000002,,,,,,,,,,,,,,,,,,,,,,,,,,,,,,,,,,,,,,,,,,,,,,,clips/clip_hund_19_nosub_0.mp4,audios/clip_hund_19_nosub_0.mp3,audiovisual,1049.1329372999971,1049.5443994999987,1049.745630999998,1049.745630999998,1049.7446894666648,1061.323169299998,1061.1128480000007,[],1061.2048871999978,1061.2049350999987,None,1061.2049719999995,1061.2049896999997,None,1061.323169299998,,,,,,,,,,,,,,,,335,001,2026-04-01_17h59.32.359,exp_sofc,,2025.2.3,59.925811845544914,2026-04-01 17h59.32.848560 +0200,
,62,0,62,,,,,,,,,,,,,,,,,,,,,,None,None,,,,,,,,,,,,,62,0,62,0,1061.323169299998,,,,,,,,,,,,,,,,,,,,,,,,,,,,,,,,,,,,,,,,,,,,,,,clips/clip_wurst_06_nosub_2.mp4,audios/clip_wurst_06_nosub_2.mp3,audiovisual,1061.3191258000006,1061.7073089999976,1061.9078711000002,1061.9078711000002,1061.907742466665,1073.2007615999973,1073.008548599999,"[2.4505403000002843, 8.253506400000333]",1073.084797399999,1073.0848434,None,1073.0848733999992,1073.0848895999989,None,1073.0083751999991,,,,,,,,,,,,,,,,335,001,2026-04-01_17h59.32.359,exp_sofc,,2025.2.3,59.925811845544914,2026-04-01 17h59.32.848560 +0200,
,63,0,63,,,,,,,,,,,,,,,,,,,,,,None,None,,,,,,,,,,,,,63,0,63,0,1073.2007615999973,,,,,,,,,,,,,,,,,,,,,,,,,,,,,,,,,,,,,,,,,,,,,,,clips/clip_wurst_10_sub_2.mp4,audios/clip_wurst_10_sub_2.mp3,audiovisual,1073.1968071999981,1073.5843851999998,1073.7852767999975,1073.7852767999975,1073.7846465666664,1082.7785689999982,1082.5883785999977,[4.905846699999529],1082.6793698000001,1082.6794091999982,None,1082.6794852999992,1082.679523499999,None,,,,,,,,,,,,,,,,,335,001,2026-04-01_17h59.32.359,exp_sofc,,2025.2.3,59.925811845544914,2026-04-01 17h59.32.848560 +0200,
,64,0,64,,,,,,,,,,,,,,,,,,,,,,None,None,,,,,,,,,,,,,64,0,64,0,1082.7785689999982,,,,,,,,,,,,,,,,,,,,,,,,,,,,,,,,,,,,,,,,,,,,,,,clips/clip_weißt_27_sub_1.mp4,audios/silence.mp3,visual,1082.7751327999977,1083.1909143999983,1083.3913356999983,1083.3913356999983,1083.3911281666662,1093.6905206999982,1093.4911590999982,[8.053115399998205],1093.5774008999979,1093.5774375,None,1093.5774882999976,1093.577548199999,None,1084.6430957999983,,,,,,,,,,,,,,,,335,001,2026-04-01_17h59.32.359,exp_sofc,,2025.2.3,59.925811845544914,2026-04-01 17h59.32.848560 +0200,
,65,0,65,,,,,,,,,,,,,,,,,,,,,,None,None,,,,,,,,,,,,,65,0,65,0,1093.6905206999982,,,,,,,,,,,,,,,,,,,,,,,,,,,,,,,,,,,,,,,,,,,,,,,clips/clip_lied_08_nosub_1.mp4,audios/clip_lied_08_nosub_1.mp3,audiovisual,1093.6870997999977,1094.0831289999987,1094.2836480000005,1094.2836480000005,1094.2835842666648,1103.5891566999999,1103.3855140999985,[7.471980199999962],1103.479542099998,1103.4795816999977,None,1103.4796561999974,1103.4796892999984,None,,,,,,,,,,,,,,,,,335,001,2026-04-01_17h59.32.359,exp_sofc,,2025.2.3,59.925811845544914,2026-04-01 17h59.32.848560 +0200,
,66,0,66,,,,,,,,,,,,,,,,,,,,,,2,None,7.2210279000028095,None,,,,,,,,,,,66,0,66,0,1103.5891566999999,,,,,,,,,,,,,,,,,,,,,,,,,,,,,,,,,,,,,,,,,,,,,,,clips/clip_weißt_13_nosub_0.mp4,audios/clip_weißt_13_nosub_0.mp3,audiovisual,1103.5858090999973,1103.9907643000006,1104.1909687000007,1104.1909687000007,1104.1911915666644,1115.1097902000001,1115.007829899998,[],1115.106093399998,1122.344928399998,2,1122.3449886999988,1122.3450138999979,None,1115.0076377999976,2,1115.1097902000001,1115.1097902000001,1115.1097902000001,7.2210279000028095,None,,,,,,,,,,335,001,2026-04-01_17h59.32.359,exp_sofc,,2025.2.3,59.925811845544914,2026-04-01 17h59.32.848560 +0200,
,67,0,67,,,,,,,,,,,,,,,,,,,,,,4,None,20.398881000000983,None,,,,,,,,,,,67,0,67,0,1122.4729487999975,,,,,,,,,,,,,,,,,,,,,,,,,,,,,,,,,,,,,,,,,,,,,,,clips/clip_hund_13_sub_1.mp4,audios/clip_hund_13_sub_1.mp3,audiovisual,1122.4688247999984,1122.8446607999977,1123.0454995,1123.0454995,1123.0448821666653,1134.8986963999996,1134.7967833999974,[5.8871237999992445],1134.8929245,1155.3037251999995,4,1155.3037865000006,1155.3038134999988,None,1134.8986963999996,3,1134.8986963999996,1134.8986963999996,1134.8986963999996,20.398881000000983,None,,,,,,,,,,335,001,2026-04-01_17h59.32.359,exp_sofc,,2025.2.3,59.925811845544914,2026-04-01 17h59.32.848560 +0200,
,68,0,68,,,,,,,,,,,,,,,,,,,,,,1,None,5.547740500001964,None,,,,,,,,,,,68,0,68,0,1155.4073865999999,,,,,,,,,,,,,,,,,,,,,,,,,,,,,,,,,,,,,,,,,,,,,,,clips/clip_dampf_05_nosub_2.mp4,audios/silence.mp3,visual,1155.4040137999982,1155.8126214000004,1156.0131445000006,1156.0131445000006,1156.012912466664,1164.8200856999974,1164.7111600999997,"[5.633883300000889, 8.816620900000999]",1164.8165335999984,1170.3798003999982,1,1170.3798552999979,1170.379873599999,None,1157.2650675999976,1,1164.8200856999974,1164.8200856999974,1164.8200856999974,5.547740500001964,None,,,,,,,,,,335,001,2026-04-01_17h59.32.359,exp_sofc,,2025.2.3,59.925811845544914,2026-04-01 17h59.32.848560 +0200,
,69,0,69,,,,,,,,,,,,,,,,,,,,,,2,None,4.560361299998476,None,,,,,,,,,,,69,0,69,0,1170.4786773999986,,,,,,,,,,,,,,,,,,,,,,,,,,,,,,,,,,,,,,,,,,,,,,,clips/clip_weißt_11_nosub_0.mp4,audios/silence.mp3,visual,1170.4735454999973,1170.8886566999972,1171.090152599998,1171.090152599998,1171.090102866667,1181.232822599999,1181.1221303999992,[],1181.2289213999975,1185.8073965999974,2,1185.8074583999987,1185.8074839999972,None,1172.3411312999997,2,1181.232822599999,1181.232822599999,1181.232822599999,4.560361299998476,None,,,,,,,,,,335,001,2026-04-01_17h59.32.359,exp_sofc,,2025.2.3,59.925811845544914,2026-04-01 17h59.32.848560 +0200,
,70,0,70,,,,,,,,,,,,,,,,,,,,,,4,None,4.167637699996703,None,,,,,,,,,,,70,0,70,0,1185.9224813999972,,,,,,,,,,,,,,,,,,,,,,,,,,,,,,,,,,,,,,,,,,,,,,,clips/clip_hund_32_nosub_1.mp4,audios/clip_hund_32_nosub_1.mp3,audiovisual,1185.9185264999978,1186.307449699998,1186.5077321999997,1186.5077321999997,1186.507179366665,1196.6328675999976,1196.539944799999,"[4.797288800000388, 6.693935600000259]",1196.6291913999994,1200.8048073999998,4,1200.8048548999977,1200.8048727999994,None,1196.539755599999,4,1196.6328675999976,1196.6328675999976,1196.6328675999976,4.167637699996703,None,,,,,,,,,,335,001,2026-04-01_17h59.32.359,exp_sofc,,2025.2.3,59.925811845544914,2026-04-01 17h59.32.848560 +0200,
,71,0,71,,,,,,,,,,,,,,,,,,,,,,None,None,,,,,,,,,,,,,71,0,71,0,1200.9018746000002,,,,,,,,,,,,,,,,,,,,,,,,,,,,,,,,,,,,,,,,,,,,,,,clips/clip_wurst_20_sub_0.mp4,audios/silence.mp3,visual,1200.8967163999987,1201.3142367999972,1201.5152243999983,1201.5152243999983,1201.5143217666666,1211.7655481999973,1211.5474260999981,[],1211.6406212999973,1211.6406540999997,None,1211.6406831999993,1211.6407002999986,None,1202.7660772999989,,,,,,,,,,,,,,,,335,001,2026-04-01_17h59.32.359,exp_sofc,,2025.2.3,59.925811845544914,2026-04-01 17h59.32.848560 +0200,
,72,0,72,,,,,,,,,,,,,,,,,,,,,,None,None,,,,,,,,,,,,,72,0,72,0,1211.7655481999973,,,,,,,,,,,,,,,,,,,,,,,,,,,,,,,,,,,,,,,,,,,,,,,clips/clip_claude_16_sub_1.mp4,audios/clip_claude_16_sub_1.mp3,audiovisual,1211.7614003999988,1212.1470630000003,1212.3477843999972,1212.3477843999972,1212.3474586666673,1223.7511882,1223.5328050999997,[9.1662630000028],1223.6130575999996,1223.6130940000003,None,1223.6131394000004,1223.6131916999984,None,,,,,,,,,,,,,,,,,335,001,2026-04-01_17h59.32.359,exp_sofc,,2025.2.3,59.925811845544914,2026-04-01 17h59.32.848560 +0200,
,73,0,73,,,,,,,,,,,,,,,,,,,,,,None,None,,,,,,,,,,,,,73,0,73,0,1223.7511882,,,,,,,,,,,,,,,,,,,,,,,,,,,,,,,,,,,,,,,,,,,,,,,clips/clip_weißt_06_sub_0.mp4,audios/clip_weißt_06_sub_0.mp3,audiovisual,1223.7469592999987,1224.1159740999974,1224.3167584000003,1224.3167584000003,1224.3166042666674,1234.831726299999,1234.6325603999976,[5.687165499999537],1234.7339844999988,1234.7340218999998,None,1234.7340540999976,1234.734077099998,None,1234.831726299999,,,,,,,,,,,,,,,,335,001,2026-04-01_17h59.32.359,exp_sofc,,2025.2.3,59.925811845544914,2026-04-01 17h59.32.848560 +0200,
,74,0,74,,,,,,,,,,,,,,,,,,,,,,None,None,,,,,,,,,,,,,74,0,74,0,1234.831726299999,,,,,,,,,,,,,,,,,,,,,,,,,,,,,,,,,,,,,,,,,,,,,,,clips/clip_claude_13_sub_0.mp4,audios/clip_claude_13_sub_0.mp3,audiovisual,1234.8279784999977,1235.2419988999973,1235.4419907999982,1235.4419907999982,1235.4418609666648,1244.8419103999986,1244.6561354999976,[],1244.7475096999988,1244.7475610000001,None,1244.7476050999976,1244.7476294000007,None,1244.6559788999984,,,,,,,,,,,,,,,,335,001,2026-04-01_17h59.32.359,exp_sofc,,2025.2.3,59.925811845544914,2026-04-01 17h59.32.848560 +0200,
,75,0,75,,,,,,,,,,,,,,,,,,,,,,None,None,,,,,,,,,,,,,75,0,75,0,1244.8419103999986,,,,,,,,,,,,,,,,,,,,,,,,,,,,,,,,,,,,,,,,,,,,,,,clips/clip_weißt_04_sub_0.mp4,audios/silence.mp3,visual,1244.8374546999985,1245.2598362999997,1245.4605795999996,1245.4605795999996,1245.460418566665,1255.777838599999,1255.560319199998,[],1255.6606715999988,1255.6607096999978,None,1255.6607492999974,1255.6607699999986,None,1246.7117498999978,,,,,,,,,,,,,,,,335,001,2026-04-01_17h59.32.359,exp_sofc,,2025.2.3,59.925811845544914,2026-04-01 17h59.32.848560 +0200,
,76,0,76,,,,,,,,,,,,,,,,,,,,,,None,None,,,,,,,,,,,,,76,0,76,0,1255.777838599999,,,,,,,,,,,,,,,,,,,,,,,,,,,,,,,,,,,,,,,,,,,,,,,clips/clip_herz_04_nosub_0.mp4,audios/silence.mp3,visual,1255.7719928999977,1256.1600246999988,1256.3607052999978,1256.3607052999978,1256.360211966665,1267.5843945999986,1267.3776216000006,[8.060499200000777],1267.471663799999,1267.4717033999987,None,1267.4718441999976,1267.4718895000005,None,1257.6121647999971,,,,,,,,,,,,,,,,335,001,2026-04-01_17h59.32.359,exp_sofc,,2025.2.3,59.925811845544914,2026-04-01 17h59.32.848560 +0200,
,77,0,77,,,,,,,,,,,,,,,,,,,,,,None,None,,,,,,,,,,,,,77,0,77,0,1267.5843945999986,,,,,,,,,,,,,,,,,,,,,,,,,,,,,,,,,,,,,,,,,,,,,,,clips/clip_claude_01_nosub_2.mp4,audios/silence.mp3,visual,1267.5786597000006,1267.9866932000004,1268.1900876,1268.1900876,1268.1877444666645,1279.345199299998,1279.1539995999992,"[6.696308800001134, 8.835123699998803]",1279.2526760999972,1279.2527415000004,None,1279.2527788000007,1279.2527950000003,None,1269.4386739000001,,,,,,,,,,,,,,,,335,001,2026-04-01_17h59.32.359,exp_sofc,,2025.2.3,59.925811845544914,2026-04-01 17h59.32.848560 +0200,
,78,0,78,,,,,,,,,,,,,,,,,,,,,,None,None,,,,,,,,,,,,,78,0,78,0,1279.345199299998,,,,,,,,,,,,,,,,,,,,,,,,,,,,,,,,,,,,,,,,,,,,,,,clips/clip_dampf_06_sub_2.mp4,audios/silence.mp3,visual,1279.3414998999979,1279.7637293000007,1279.9640321999977,1279.9640321999977,1279.963807866665,1289.180236799999,1288.9958236999992,[],1289.0869072999994,1289.0869644999984,None,1289.0870503000006,1289.087074799998,None,1281.216525599997,,,,,,,,,,,,,,,,335,001,2026-04-01_17h59.32.359,exp_sofc,,2025.2.3,59.925811845544914,2026-04-01 17h59.32.848560 +0200,
,79,0,79,,,,,,,,,,,,,,,,,,,,,,None,None,,,,,,,,,,,,,79,0,79,0,1289.180236799999,,,,,,,,,,,,,,,,,,,,,,,,,,,,,,,,,,,,,,,,,,,,,,,clips/clip_holo_15_nosub_0.mp4,audios/silence.mp3,visual,1289.1775909999997,1289.5992334999974,1289.799098899999,1289.799098899999,1289.7988660666672,1299.1962251999976,1298.9970049000003,[6.314120200000616],1299.0843762999975,1299.084433699998,None,1299.0844733999984,1299.0844913,None,1291.0511622999984,,,,,,,,,,,,,,,,335,001,2026-04-01_17h59.32.359,exp_sofc,,2025.2.3,59.925811845544914,2026-04-01 17h59.32.848560 +0200,
,80,0,80,,,,,,,,,,,,,,,,,,,,,,None,None,,,,,,,,,,,,,80,0,80,0,1299.1962251999976,,,,,,,,,,,,,,,,,,,,,,,,,,,,,,,,,,,,,,,,,,,,,,,clips/clip_herz_05_sub_0.mp4,audios/silence.mp3,visual,1299.1926170000006,1299.5897110000005,1299.7901850999988,1299.7901850999988,1299.7898810666668,1310.2870516000003,1310.0896149999971,[5.893747000001895],1310.1863307999993,1310.1863639000003,None,1310.1863951999985,1310.1864115999997,None,1301.0415212000007,,,,,,,,,,,,,,,,335,001,2026-04-01_17h59.32.359,exp_sofc,,2025.2.3,59.925811845544914,2026-04-01 17h59.32.848560 +0200,
,81,0,81,,,,,,,,,,,,,,,,,,,,,,2,None,4.20593849999932,None,,,,,,,,,,,81,0,81,0,1310.2870516000003,,,,,,,,,,,,,,,,,,,,,,,,,,,,,,,,,,,,,,,,,,,,,,,clips/clip_weißt_19_sub_1.mp4,audios/silence.mp3,visual,1310.2827304999992,1310.6978896999972,1310.8988960999995,1310.8988960999995,1310.8985282666656,1321.0374854999973,1320.9321691000005,[],1321.0338755999983,1325.2457484000006,2,1325.2458098999996,1325.2458346999993,None,1312.150469199998,2,1321.0374854999973,1321.0374854999973,1321.0374854999973,4.20593849999932,None,,,,,,,,,,335,001,2026-04-01_17h59.32.359,exp_sofc,,2025.2.3,59.925811845544914,2026-04-01 17h59.32.848560 +0200,
,82,0,82,,,,,,,,,,,,,,,,,,,,,,None,None,,,,,,,,,,,,,82,0,82,0,1325.3504887999989,,,,,,,,,,,,,,,,,,,,,,,,,,,,,,,,,,,,,,,,,,,,,,,clips/clip_wurst_15_sub_2.mp4,audios/silence.mp3,visual,1325.3470081999985,1325.7552269999978,1325.955922699999,1325.955922699999,1325.9558229666657,1335.5734200000006,1335.3864833000007,"[5.402789799998573, 8.809835000000021]",1335.491699899998,1335.4917319999986,None,1335.4917602999994,1335.4917762000005,None,1327.207239899999,,,,,,,,,,,,,,,,335,001,2026-04-01_17h59.32.359,exp_sofc,,2025.2.3,59.925811845544914,2026-04-01 17h59.32.848560 +0200,
,83,0,83,,,,,,,,,,,,,,,,,,,,,,None,None,,,,,,,,,,,,,83,0,83,0,1335.5734200000006,,,,,,,,,,,,,,,,,,,,,,,,,,,,,,,,,,,,,,,,,,,,,,,clips/clip_weißt_15_sub_1.mp4,audios/silence.mp3,visual,1335.5685792000004,1336.007176799998,1336.2087829999982,1336.1917522000003,1336.1912617666642,1347.2802835000002,1347.1084985999987,"[2.9194496999989497, 4.99627959999998]",1347.1948894999987,1347.1949318999978,None,1347.194974099999,1347.194990699998,None,1337.4430887999988,,,,,,,,,,,,,,,,335,001,2026-04-01_17h59.32.359,exp_sofc,,2025.2.3,59.925811845544914,2026-04-01 17h59.32.848560 +0200,
,84,0,84,,,,,,,,,,,,,,,,,,,,,,1,None,7.633089200000541,None,,,,,,,,,,,84,0,84,0,1347.2802835000002,,,,,,,,,,,,,,,,,,,,,,,,,,,,,,,,,,,,,,,,,,,,,,,clips/clip_claude_18_sub_0.mp4,audios/silence.mp3,visual,1347.2767104999984,1347.7097622000001,1347.9095544999982,1347.9095544999982,1347.9093926666649,1357.0537714999991,1356.9411932000003,[],1357.0507287999972,1364.700654799999,1,1364.7007129999984,1364.7007378999988,None,1349.1612185999984,1,1357.0537714999991,1357.0537714999991,1357.0537714999991,7.633089200000541,None,,,,,,,,,,335,001,2026-04-01_17h59.32.359,exp_sofc,,2025.2.3,59.925811845544914,2026-04-01 17h59.32.848560 +0200,
,85,0,85,,,,,,,,,,,,,,,,,,,,,,None,None,,,,,,,,,,,,,85,0,85,0,1364.7989175000002,,,,,,,,,,,,,,,,,,,,,,,,,,,,,,,,,,,,,,,,,,,,,,,clips/clip_hund_34_sub_1.mp4,audios/silence.mp3,visual,1364.7941170999984,1365.2093695000003,1365.4108211999992,1365.4108211999992,1365.4102676666664,1376.0400408999994,1375.8427572999972,[],1375.925796899999,1375.9258276,None,1375.9258620999972,1375.9258768,None,1366.6615792999983,,,,,,,,,,,,,,,,335,001,2026-04-01_17h59.32.359,exp_sofc,,2025.2.3,59.925811845544914,2026-04-01 17h59.32.848560 +0200,
,86,0,86,,,,,,,,,,,,,,,,,,,,,,3,None,5.452462499997637,None,,,,,,,,,,,86,0,86,0,1376.0400408999994,,,,,,,,,,,,,,,,,,,,,,,,,,,,,,,,,,,,,,,,,,,,,,,clips/clip_wurst_18_sub_0.mp4,audios/clip_wurst_18_sub_0.mp3,audiovisual,1376.0361744999973,1376.4360080000006,1376.6362334000005,1376.6362334000005,1376.6360827666651,1386.7707401999978,1386.6680357999976,[],1386.7649789999996,1392.236021599998,3,1392.2360840999972,1392.2361079000002,None,1386.6678121999976,3,1386.7707401999978,1386.7707401999978,1386.7707401999978,5.452462499997637,None,,,,,,,,,,335,001,2026-04-01_17h59.32.359,exp_sofc,,2025.2.3,59.925811845544914,2026-04-01 17h59.32.848560 +0200,
,87,0,87,,,,,,,,,,,,,,,,,,,,,,None,None,,,,,,,,,,,,,87,0,87,0,1392.3321518999983,,,,,,,,,,,,,,,,,,,,,,,,,,,,,,,,,,,,,,,,,,,,,,,clips/clip_claude_05_sub_2.mp4,audios/silence.mp3,visual,1392.3293988000005,1392.7438742999984,1392.9445168999991,1392.9445168999991,1392.9441938666644,1404.4428504999996,1404.2287429999997,[4.687563399998908],1404.3164722000001,1404.3165052999975,None,1404.3165324000001,1404.316547399998,None,1394.1962972999972,,,,,,,,,,,,,,,,335,001,2026-04-01_17h59.32.359,exp_sofc,,2025.2.3,59.925811845544914,2026-04-01 17h59.32.848560 +0200,
,88,0,88,,,,,,,,,,,,,,,,,,,,,,None,None,,,,,,,,,,,,,88,0,88,0,1404.4428504999996,,,,,,,,,,,,,,,,,,,,,,,,,,,,,,,,,,,,,,,,,,,,,,,clips/clip_claude_08_nosub_0.mp4,audios/clip_claude_08_nosub_0.mp3,audiovisual,1404.4390066999986,1404.8272743999987,1405.0282248000003,1405.0282248000003,1405.0277165666669,1414.8378656999994,1414.6594318999996,[],1414.7386028,1414.7386837999984,None,1414.7387444999986,1414.738776099999,None,1414.6592517999998,,,,,,,,,,,,,,,,335,001,2026-04-01_17h59.32.359,exp_sofc,,2025.2.3,59.925811845544914,2026-04-01 17h59.32.848560 +0200,
,89,0,89,,,,,,,,,,,,,,,,,,,,,,None,None,,,,,,,,,,,,,89,0,89,0,1414.8378656999994,,,,,,,,,,,,,,,,,,,,,,,,,,,,,,,,,,,,,,,,,,,,,,,clips/clip_holo_20_nosub_1.mp4,audios/clip_holo_20_nosub_1.mp3,audiovisual,1414.8343571000005,1415.2437026999978,1415.4444019000002,1415.4444019000002,1415.444147466664,1425.0623790999998,1424.8763556999984,[1.77871370000139],1424.9690166,1424.9691007999972,None,1424.9691367999985,1424.9691555999998,None,1424.8761467999975,,,,,,,,,,,,,,,,335,001,2026-04-01_17h59.32.359,exp_sofc,,2025.2.3,59.925811845544914,2026-04-01 17h59.32.848560 +0200,
,90,0,90,,,,,,,,,,,,,,,,,,,,,,None,None,,,,,,,,,,,,,90,0,90,0,1425.0623790999998,,,,,,,,,,,,,,,,,,,,,,,,,,,,,,,,,,,,,,,,,,,,,,,clips/clip_lied_19_nosub_1.mp4,audios/silence.mp3,visual,1425.0597156999975,1425.4807512000007,1425.6813478999975,1425.6813478999975,1425.6815242666673,1436.545804999998,1436.3818169999977,[5.028367800001433],1436.4586253999987,1436.4586636999993,None,1436.4586945999981,1436.4587107999978,None,1426.9331022000006,,,,,,,,,,,,,,,,335,001,2026-04-01_17h59.32.359,exp_sofc,,2025.2.3,59.925811845544914,2026-04-01 17h59.32.848560 +0200,
,91,0,91,,,,,,,,,,,,,,,,,,,,,,None,None,,,,,,,,,,,,,91,0,91,0,1436.545804999998,,,,,,,,,,,,,,,,,,,,,,,,,,,,,,,,,,,,,,,,,,,,,,,clips/clip_claude_19_nosub_0.mp4,audios/silence.mp3,visual,1436.5433554999981,1436.9649054000001,1437.164985899999,1437.164985899999,1437.1651490666666,1447.8328980999977,1447.5976977999999,[],1447.7055957999983,1447.7056338999973,None,1447.7056744999973,1447.7057064999972,None,1438.416534,,,,,,,,,,,,,,,,335,001,2026-04-01_17h59.32.359,exp_sofc,,2025.2.3,59.925811845544914,2026-04-01 17h59.32.848560 +0200,
,92,0,92,,,,,,,,,,,,,,,,,,,,,,None,None,,,,,,,,,,,,,92,0,92,0,1447.8328980999977,,,,,,,,,,,,,,,,,,,,,,,,,,,,,,,,,,,,,,,,,,,,,,,clips/clip_weißt_26_sub_1.mp4,audios/clip_weißt_26_sub_1.mp3,audiovisual,1447.8291695999978,1448.2173771999987,1448.4177687999982,1448.4177687999982,1448.417527466667,1458.8410590999993,1458.6336878000002,[7.768915900000138],1458.7246653000002,1458.724743499999,None,1458.7247994999998,1458.7248268000003,None,1458.6335228999997,,,,,,,,,,,,,,,,335,001,2026-04-01_17h59.32.359,exp_sofc,,2025.2.3,59.925811845544914,2026-04-01 17h59.32.848560 +0200,
,93,0,93,,,,,,,,,,,,,,,,,,,,,,None,None,,,,,,,,,,,,,93,0,93,0,1458.8410590999993,,,,,,,,,,,,,,,,,,,,,,,,,,,,,,,,,,,,,,,,,,,,,,,clips/clip_weißt_14_nosub_2.mp4,audios/clip_weißt_14_nosub_2.mp3,audiovisual,1458.8374700999993,1459.2260033999992,1459.4272662999974,1459.4272662999974,1459.4263496666647,1468.5554298999996,1468.3401763000002,"[2.5833133999985876, 8.165995499999553]",1468.4431848999993,1468.4432782999975,None,1468.4433236999976,1468.4433463999994,None,1468.3400072999975,,,,,,,,,,,,,,,,335,001,2026-04-01_17h59.32.359,exp_sofc,,2025.2.3,59.925811845544914,2026-04-01 17h59.32.848560 +0200,
,94,0,94,,,,,,,,,,,,,,,,,,,,,,None,None,,,,,,,,,,,,,94,0,94,0,1468.5554298999996,,,,,,,,,,,,,,,,,,,,,,,,,,,,,,,,,,,,,,,,,,,,,,,clips/clip_lied_09_sub_1.mp4,audios/clip_lied_09_sub_1.mp3,audiovisual,1468.5514927000004,1468.9565494999988,1469.1570683999998,1469.1570683999998,1469.1570408666669,1479.7925625999997,1479.5908915,[],1479.6814871999995,1479.6815324999989,None,1479.6815681999979,1479.6815863999982,None,1479.5906534999995,,,,,,,,,,,,,,,,335,001,2026-04-01_17h59.32.359,exp_sofc,,2025.2.3,59.925811845544914,2026-04-01 17h59.32.848560 +0200,
,95,0,95,,,,,,,,,,,,,,,,,,,,,,1,None,3.051169400001527,None,,,,,,,,,,,95,0,95,0,1479.7925625999997,,,,,,,,,,,,,,,,,,,,,,,,,,,,,,,,,,,,,,,,,,,,,,,clips/clip_lied_06_sub_1.mp4,audios/clip_lied_06_sub_1.mp3,audiovisual,1479.7890819999993,1480.1822758999988,1480.3828181999997,1480.3828181999997,1480.3825764666656,1493.1012472999973,1493.0033212999988,[],1493.0978785000007,1496.1657311999988,1,1496.1657804999995,1496.1657997999973,None,1493.1012472999973,1,1493.1012472999973,1493.1012472999973,1493.1012472999973,3.051169400001527,None,,,,,,,,,,335,001,2026-04-01_17h59.32.359,exp_sofc,,2025.2.3,59.925811845544914,2026-04-01 17h59.32.848560 +0200,
,96,0,96,,,,,,,,,,,,,,,,,,,,,,None,None,,,,,,,,,,,,,96,0,96,0,1496.2877345999987,,,,,,,,,,,,,,,,,,,,,,,,,,,,,,,,,,,,,,,,,,,,,,,clips/clip_claude_02_nosub_1.mp4,audios/clip_claude_02_nosub_1.mp3,audiovisual,1496.2835957999996,1496.6663244999982,1496.8668440000001,1496.8668440000001,1496.8665108666648,1506.872722,1506.6666712000006,[],1506.7557726999985,1506.755814199998,None,1506.7558487999995,1506.7558659999995,None,,,,,,,,,,,,,,,,,335,001,2026-04-01_17h59.32.359,exp_sofc,,2025.2.3,59.925811845544914,2026-04-01 17h59.32.848560 +0200,
,97,0,97,,,,,,,,,,,,,,,,,,,,,,None,None,,,,,,,,,,,,,97,0,97,0,1506.872722,,,,,,,,,,,,,,,,,,,,,,,,,,,,,,,,,,,,,,,,,,,,,,,clips/clip_holo_09_nosub_2.mp4,audios/clip_holo_09_nosub_2.mp3,audiovisual,1506.8677310999992,1507.2580467999978,1507.4600576999983,1507.4600576999983,1507.4580197666658,1519.1093309999997,1518.9094302999983,[],1519.001780999999,1519.0018290000007,None,1519.0018598999995,1519.0018784999993,None,1518.9092265,,,,,,,,,,,,,,,,335,001,2026-04-01_17h59.32.359,exp_sofc,,2025.2.3,59.925811845544914,2026-04-01 17h59.32.848560 +0200,
,98,0,98,,,,,,,,,,,,,,,,,,,,,,4,None,3.2051080999990518,None,,,,,,,,,,,98,0,98,0,1519.1093309999997,,,,,,,,,,,,,,,,,,,,,,,,,,,,,,,,,,,,,,,,,,,,,,,clips/clip_holo_23_sub_1.mp4,audios/clip_holo_23_sub_1.mp3,audiovisual,1519.1061745000006,1519.5017394999995,1519.7042264999982,1519.7042264999982,1519.7043387666638,1529.8511070999994,1529.7364692999981,[],1529.8471156999985,1533.056683499999,4,1533.0567354999985,1533.0567545999984,None,1529.7362170999986,4,1529.8511070999994,1529.8511070999994,1529.8511070999994,3.2051080999990518,None,,,,,,,,,,335,001,2026-04-01_17h59.32.359,exp_sofc,,2025.2.3,59.925811845544914,2026-04-01 17h59.32.848560 +0200,
,99,0,99,,,,,,,,,,,,,,,,,,,,,,None,None,,,,,,,,,,,,,99,0,99,0,1533.1478977999977,,,,,,,,,,,,,,,,,,,,,,,,,,,,,,,,,,,,,,,,,,,,,,,clips/clip_holo_07_nosub_0.mp4,audios/silence.mp3,visual,1533.1444749999973,1533.5656552999972,1533.7665572000005,1533.7665572000005,1533.7660249666662,1543.3530059000004,1543.163664399999,[],1543.253338999999,1543.253373399999,None,1543.2533994999976,1543.253420099998,None,1535.0191612999988,,,,,,,,,,,,,,,,335,001,2026-04-01_17h59.32.359,exp_sofc,,2025.2.3,59.925811845544914,2026-04-01 17h59.32.848560 +0200,
,100,0,100,,,,,,,,,,,,,,,,,,,,,,None,None,,,,,,,,,,,,,100,0,100,0,1543.3530059000004,,,,,,,,,,,,,,,,,,,,,,,,,,,,,,,,,,,,,,,,,,,,,,,clips/clip_dampf_01_sub_0.mp4,audios/clip_dampf_01_sub_0.mp3,audiovisual,1543.3491044999973,1543.7541502999993,1543.9552612999978,1543.9552612999978,1543.9548409666643,1553.5648244999975,1553.3859826999978,[],1553.4748447999991,1553.4748880000006,None,1553.4749300000003,1553.4749912999978,None,1553.5648244999975,,,,,,,,,,,,,,,,335,001,2026-04-01_17h59.32.359,exp_sofc,,2025.2.3,59.925811845544914,2026-04-01 17h59.32.848560 +0200,
,101,0,101,,,,,,,,,,,,,,,,,,,,,,None,None,,,,,,,,,,,,,101,0,101,0,1553.5648244999975,,,,,,,,,,,,,,,,,,,,,,,,,,,,,,,,,,,,,,,,,,,,,,,clips/clip_wurst_33_nosub_0.mp4,audios/silence.mp3,visual,1553.5611427000003,1553.9868357999985,1554.1886656999995,1554.1886656999995,1554.1881162666652,1564.1414712999976,1563.919213199999,[],1564.0160097000007,1564.016069199999,None,1564.016152799999,1564.0161821000002,None,1555.4404680000007,,,,,,,,,,,,,,,,335,001,2026-04-01_17h59.32.359,exp_sofc,,2025.2.3,59.925811845544914,2026-04-01 17h59.32.848560 +0200,
,102,0,102,,,,,,,,,,,,,,,,,,,,,,None,None,,,,,,,,,,,,,102,0,102,0,1564.1414712999976,,,,,,,,,,,,,,,,,,,,,,,,,,,,,,,,,,,,,,,,,,,,,,,clips/clip_hund_29_nosub_0.mp4,audios/clip_hund_29_nosub_0.mp3,audiovisual,1564.1374600999989,1564.5199149,1564.720868299999,1564.720868299999,1564.720589666664,1576.3235247999983,1576.1380769999996,[10.626317300000665],1576.231568299998,1576.2316489000004,None,1576.2317086999974,1576.2317616999972,None,1576.1379022,,,,,,,,,,,,,,,,335,001,2026-04-01_17h59.32.359,exp_sofc,,2025.2.3,59.925811845544914,2026-04-01 17h59.32.848560 +0200,
,103,0,103,,,,,,,,,,,,,,,,,,,,,,None,None,,,,,,,,,,,,,103,0,103,0,1576.3235247999983,,,,,,,,,,,,,,,,,,,,,,,,,,,,,,,,,,,,,,,,,,,,,,,clips/clip_hund_30_nosub_0.mp4,audios/silence.mp3,visual,1576.3197889999974,1576.7420127000005,1576.942384599999,1576.942384599999,1576.9423412666658,1589.1587895999983,1588.9610837,[],1589.0576889000004,1589.0577217999999,None,1589.0577604999999,1589.0577948999999,None,1578.1937251999989,,,,,,,,,,,,,,,,335,001,2026-04-01_17h59.32.359,exp_sofc,,2025.2.3,59.925811845544914,2026-04-01 17h59.32.848560 +0200,
,104,0,104,,,,,,,,,,,,,,,,,,,,,,None,None,,,,,,,,,,,,,104,0,104,0,1589.1587895999983,,,,,,,,,,,,,,,,,,,,,,,,,,,,,,,,,,,,,,,,,,,,,,,clips/clip_lied_10_nosub_1.mp4,audios/silence.mp3,visual,1589.1553244999996,1589.569962999998,1589.7703698999976,1589.7703698999976,1589.7700295666657,1601.4665706999986,1601.2887768,[4.373062399998162],1601.372746699999,1601.3727827999974,None,1601.3728679999986,1601.3729034999997,None,1591.0219223999993,,,,,,,,,,,,,,,,335,001,2026-04-01_17h59.32.359,exp_sofc,,2025.2.3,59.925811845544914,2026-04-01 17h59.32.848560 +0200,
,105,0,105,,,,,,,,,,,,,,,,,,,,,,None,None,,,,,,,,,,,,,105,0,105,0,1601.4665706999986,,,,,,,,,,,,,,,,,,,,,,,,,,,,,,,,,,,,,,,,,,,,,,,clips/clip_weißt_17_sub_0.mp4,audios/silence.mp3,visual,1601.4642617999998,1601.8728109000003,1602.0725767999975,1602.0725767999975,1602.072461566666,1613.7834516000003,1613.5916020000004,[],1613.6865737999979,1613.686608699998,None,1613.6866781999997,1613.6867041000005,None,1603.3243640999972,,,,,,,,,,,,,,,,335,001,2026-04-01_17h59.32.359,exp_sofc,,2025.2.3,59.925811845544914,2026-04-01 17h59.32.848560 +0200,
,106,0,106,,,,,,,,,,,,,,,,,,,,,,3,None,6.345223899999837,None,,,,,,,,,,,106,0,106,0,1613.7834516000003,,,,,,,,,,,,,,,,,,,,,,,,,,,,,,,,,,,,,,,,,,,,,,,clips/clip_lied_11_sub_1.mp4,audios/clip_lied_11_sub_1.mp3,audiovisual,1613.779468599998,1614.1996351999987,1614.400287299999,1614.400287299999,1614.4001058666656,1625.5885176999982,1625.4869077000003,[8.2520603999983],1625.5849557000001,1631.9356343,3,1631.935682899999,1631.9357004999983,None,1625.5885176999982,3,1625.5885176999982,1625.5885176999982,1625.5885176999982,6.345223899999837,None,,,,,,,,,,335,001,2026-04-01_17h59.32.359,exp_sofc,,2025.2.3,59.925811845544914,2026-04-01 17h59.32.848560 +0200,
,107,0,107,,,,,,,,,,,,,,,,,,,,,,None,None,,,,,,,,,,,,,107,0,107,0,1632.0614625999988,,,,,,,,,,,,,,,,,,,,,,,,,,,,,,,,,,,,,,,,,,,,,,,clips/clip_holo_06_sub_2.mp4,audios/clip_holo_06_sub_2.mp3,audiovisual,1632.0571941999988,1632.4368017999986,1632.6372884999982,1632.6372884999982,1632.6369967666653,1642.6233556999978,1642.402601599999,[8.951965600001131],1642.5198218999976,1642.5198534999981,None,1642.519884199999,1642.5198992000005,None,1642.402429499998,,,,,,,,,,,,,,,,335,001,2026-04-01_17h59.32.359,exp_sofc,,2025.2.3,59.925811845544914,2026-04-01 17h59.32.848560 +0200,
,108,0,108,,,,,,,,,,,,,,,,,,,,,,None,None,,,,,,,,,,,,,108,0,108,0,1642.6233556999978,,,,,,,,,,,,,,,,,,,,,,,,,,,,,,,,,,,,,,,,,,,,,,,clips/clip_weißt_30_sub_2.mp4,audios/silence.mp3,visual,1642.6189029999987,1643.0193875999976,1643.2200172999983,1643.2200172999983,1643.2212132666648,1655.4244426999976,1655.2394617999998,"[3.167067300000781, 12.099146500000643]",1655.3147567999986,1655.314820399999,None,1655.3148661999985,1655.3148889999975,None,1644.4718030000004,,,,,,,,,,,,,,,,335,001,2026-04-01_17h59.32.359,exp_sofc,,2025.2.3,59.925811845544914,2026-04-01 17h59.32.848560 +0200,
,109,0,109,,,,,,,,,,,,,,,,,,,,,,None,None,,,,,,,,,,,,,109,0,109,0,1655.4244426999976,,,,,,,,,,,,,,,,,,,,,,,,,,,,,,,,,,,,,,,,,,,,,,,clips/clip_hund_27_nosub_1.mp4,audios/clip_hund_27_nosub_1.mp3,audiovisual,1655.4209248000006,1655.825510499999,1656.0264362999987,1656.0264362999987,1656.025806466667,1666.4262602999988,1666.2419813999986,[4.610072700001183],1666.3287165999973,1666.3287848,None,1666.3288315999998,1666.3288513999978,None,1666.4262602999988,,,,,,,,,,,,,,,,335,001,2026-04-01_17h59.32.359,exp_sofc,,2025.2.3,59.925811845544914,2026-04-01 17h59.32.848560 +0200,
,110,0,110,,,,,,,,,,,,,,,,,,,,,,None,None,,,,,,,,,,,,,110,0,110,0,1666.4262602999988,,,,,,,,,,,,,,,,,,,,,,,,,,,,,,,,,,,,,,,,,,,,,,,clips/clip_claude_12_nosub_0.mp4,audios/clip_claude_12_nosub_0.mp3,audiovisual,1666.4222120999984,1666.8278169000005,1667.0282343,1667.0282343,1667.0279817666672,1676.4589175,1676.2597618,[],1676.3414405000003,1676.3414749999974,None,1676.341512699997,1676.341528699999,None,1676.2595935999998,,,,,,,,,,,,,,,,335,001,2026-04-01_17h59.32.359,exp_sofc,,2025.2.3,59.925811845544914,2026-04-01 17h59.32.848560 +0200,
,111,0,111,,,,,,,,,,,,,,,,,,,,,,None,None,,,,,,,,,,,,,111,0,111,0,1676.4589175,,,,,,,,,,,,,,,,,,,,,,,,,,,,,,,,,,,,,,,,,,,,,,,clips/clip_hund_20_nosub_0.mp4,audios/clip_hund_20_nosub_0.mp3,audiovisual,1676.4553801999973,1676.8516533999973,1677.0524810999996,1677.0524810999996,1677.0520144666664,1688.791983799998,1688.5700627000006,[],1688.6769999999997,1688.6770634999993,None,1688.677103099999,1688.6771278999986,None,1688.791983799998,,,,,,,,,,,,,,,,335,001,2026-04-01_17h59.32.359,exp_sofc,,2025.2.3,59.925811845544914,2026-04-01 17h59.32.848560 +0200,
,112,0,112,,,,,,,,,,,,,,,,,,,,,,None,None,,,,,,,,,,,,,112,0,112,0,1688.791983799998,,,,,,,,,,,,,,,,,,,,,,,,,,,,,,,,,,,,,,,,,,,,,,,clips/clip_wurst_16_sub_0.mp4,audios/clip_wurst_16_sub_0.mp3,audiovisual,1688.7880172999976,1689.1882062000004,1689.3885484999992,1689.3885484999992,1689.388040166665,1699.6019985999992,1699.420656899998,[],1699.4914277999997,1699.4914836999997,None,1699.4915469999978,1699.4915772999993,None,1699.4204630999993,,,,,,,,,,,,,,,,335,001,2026-04-01_17h59.32.359,exp_sofc,,2025.2.3,59.925811845544914,2026-04-01 17h59.32.848560 +0200,
,113,0,113,,,,,,,,,,,,,,,,,,,,,,None,None,,,,,,,,,,,,,113,0,113,0,1699.6019985999992,,,,,,,,,,,,,,,,,,,,,,,,,,,,,,,,,,,,,,,,,,,,,,,clips/clip_hund_18_nosub_1.mp4,audios/clip_hund_18_nosub_1.mp3,audiovisual,1699.5980724,1700.0045334999995,1700.2048914000006,1700.2048914000006,1700.2054963666671,1710.4334772000002,1710.2375214999993,[6.876723400000628],1710.3318624999993,1710.331898299999,None,1710.331938299998,1710.3319679999986,None,1710.237340399999,,,,,,,,,,,,,,,,335,001,2026-04-01_17h59.32.359,exp_sofc,,2025.2.3,59.925811845544914,2026-04-01 17h59.32.848560 +0200,
,114,0,114,,,,,,,,,,,,,,,,,,,,,,None,None,,,,,,,,,,,,,114,0,114,0,1710.4334772000002,,,,,,,,,,,,,,,,,,,,,,,,,,,,,,,,,,,,,,,,,,,,,,,clips/clip_lied_02_nosub_2.mp4,audios/silence.mp3,visual,1710.4301970999986,1710.8464800000002,1711.0470814,1711.0470814,1711.0464335666659,1722.238848099998,1722.0647591999987,"[4.146545100000367, 9.504145099999732]",1722.1478609999976,1722.1479293999982,None,1722.1479887999994,1722.1480142999972,None,1712.2986304999977,,,,,,,,,,,,,,,,335,001,2026-04-01_17h59.32.359,exp_sofc,,2025.2.3,59.925811845544914,2026-04-01 17h59.32.848560 +0200,
,115,0,115,,,,,,,,,,,,,,,,,,,,,,1,None,11.390394400001242,None,,,,,,,,,,,115,0,115,0,1722.238848099998,,,,,,,,,,,,,,,,,,,,,,,,,,,,,,,,,,,,,,,,,,,,,,,clips/clip_herz_06_nosub_2.mp4,audios/silence.mp3,visual,1722.2336275999987,1722.6480564999983,1722.8489002999995,1722.8489002999995,1722.8484073666662,1733.5273209000006,1733.4322274999977,"[4.961994000001141, 8.544933199998923]",1733.5234203999971,1744.9243595000007,1,1744.9244237999992,1744.9244541000007,None,1724.1003137999978,1,1733.5273209000006,1733.5273209000006,1733.5273209000006,11.390394400001242,None,,,,,,,,,,335,001,2026-04-01_17h59.32.359,exp_sofc,,2025.2.3,59.925811845544914,2026-04-01 17h59.32.848560 +0200,
,116,0,116,,,,,,,,,,,,,,,,,,,,,,None,None,,,,,,,,,,,,,116,0,116,0,1745.0444118999985,,,,,,,,,,,,,,,,,,,,,,,,,,,,,,,,,,,,,,,,,,,,,,,clips/clip_hund_07_nosub_1.mp4,audios/clip_hund_07_nosub_1.mp3,audiovisual,1745.0401869999987,1745.4249251,1745.6260032999999,1745.6260032999999,1745.6252716666643,1757.4325382999996,1757.2433017000003,[6.421126999997796],1757.3380797999998,1757.3381098999998,None,1757.3381349999981,1757.3381501000003,None,1757.243165699998,,,,,,,,,,,,,,,,335,001,2026-04-01_17h59.32.359,exp_sofc,,2025.2.3,59.925811845544914,2026-04-01 17h59.32.848560 +0200,
,117,0,117,,,,,,,,,,,,,,,,,,,,,,3,None,4.7684329000003345,None,,,,,,,,,,,117,0,117,0,1757.4325382999996,,,,,,,,,,,,,,,,,,,,,,,,,,,,,,,,,,,,,,,,,,,,,,,clips/clip_wurst_25_sub_1.mp4,audios/silence.mp3,visual,1757.4274899999982,1757.8494603,1758.050101599998,1758.050101599998,1758.0500055666673,1769.3546924000002,1769.2676826999996,[],1769.3507219999992,1774.1302526,3,1774.1303114999973,1774.1303363999978,None,1759.3017588999974,3,1769.3546924000002,1769.3546924000002,1769.3546924000002,4.7684329000003345,None,,,,,,,,,,335,001,2026-04-01_17h59.32.359,exp_sofc,,2025.2.3,59.925811845544914,2026-04-01 17h59.32.848560 +0200,
,118,0,118,,,,,,,,,,,,,,,,,,,,,,None,None,,,,,,,,,,,,,118,0,118,0,1774.2460303999978,,,,,,,,,,,,,,,,,,,,,,,,,,,,,,,,,,,,,,,,,,,,,,,clips/clip_holo_11_nosub_2.mp4,audios/clip_holo_11_nosub_2.mp3,audiovisual,1774.2415844999996,1774.631225699999,1774.8311996999983,1774.8311996999983,1774.8306140666648,1784.6924781999987,1784.4794978999998,"[5.827135600000474, 9.1307444999984]",1784.5721730000005,1784.5722036000006,None,1784.5722284999974,1784.572243999999,None,1784.6924781999987,,,,,,,,,,,,,,,,335,001,2026-04-01_17h59.32.359,exp_sofc,,2025.2.3,59.925811845544914,2026-04-01 17h59.32.848560 +0200,
,119,0,119,,,,,,,,,,,,,,,,,,,,,,None,space,,,114.71261719999893,None,,,,,,,,,119,0,119,0,1784.6924781999987,,,,,,,,,,,,,,,,,,,,,,,,,,,,,,,,,,,,,,,,,,,,,,,clips/clip_lied_01_sub_1.mp4,audios/clip_lied_01_sub_1.mp3,audiovisual,1784.688671699998,1785.0770926000005,1785.2773935000005,1785.2773935000005,1785.2771332666673,1795.4151631999994,1795.310360899999,[4.915984200000821],1795.409371499998,1795.4094160999994,None,1795.4094509999995,1910.1302069999983,space,1795.3101169999973,,,,,,,1795.4151631999994,1795.4151631999994,1795.4151631999994,,,114.71261719999893,None,,,335,001,2026-04-01_17h59.32.359,exp_sofc,,2025.2.3,59.925811845544914,2026-04-01 17h59.32.848560 +0200,
,120,0,120,,,,,,,,,,,,,,,,,,,,,,None,None,,,,,,,,,,,,,120,0,120,0,1910.2541652,,,,,,,,,,,,,,,,,,,,,,,,,,,,,,,,,,,,,,,,,,,,,,,clips/clip_herz_03_sub_2.mp4,audios/clip_herz_03_sub_2.mp3,audiovisual,1910.2498152000007,1910.6310789999989,1910.8317553999987,1910.8317553999987,1910.8314015666658,1923.3997488999994,1923.2178776,"[4.3958578999991005, 11.483179300001211]",1923.3044109000002,1923.3044923999987,None,1923.304543899998,1923.3045820999978,None,,,,,,,,,,,,,,,,,335,001,2026-04-01_17h59.32.359,exp_sofc,,2025.2.3,59.925811845544914,2026-04-01 17h59.32.848560 +0200,
,121,0,121,,,,,,,,,,,,,,,,,,,,,,None,None,,,,,,,,,,,,,121,0,121,0,1923.3997488999994,,,,,,,,,,,,,,,,,,,,,,,,,,,,,,,,,,,,,,,,,,,,,,,clips/clip_claude_03_nosub_1.mp4,audios/silence.mp3,visual,1923.396009699998,1923.8177481999992,1924.0185867,1924.0185867,1924.0184995666643,1935.7061568999998,1935.5363006000007,[5.239076199999545],1935.6147347000006,1935.6148396999997,None,1935.6148885999974,1935.6149164999988,None,1925.2700411999976,,,,,,,,,,,,,,,,335,001,2026-04-01_17h59.32.359,exp_sofc,,2025.2.3,59.925811845544914,2026-04-01 17h59.32.848560 +0200,
,122,0,122,,,,,,,,,,,,,,,,,,,,,,None,None,,,,,,,,,,,,,122,0,122,0,1935.7061568999998,,,,,,,,,,,,,,,,,,,,,,,,,,,,,,,,,,,,,,,,,,,,,,,clips/clip_lied_17_sub_2.mp4,audios/silence.mp3,visual,1935.701878699998,1936.1207705999987,1936.321135899998,1936.321135899998,1936.3210846666664,1946.5347067999974,1946.352887699999,"[2.714340499998798, 7.6758660999985295]",1946.4420334999995,1946.442083599999,None,1946.4421528999992,1946.442183799998,None,1937.5728705000001,,,,,,,,,,,,,,,,335,001,2026-04-01_17h59.32.359,exp_sofc,,2025.2.3,59.925811845544914,2026-04-01 17h59.32.848560 +0200,
,123,0,123,,,,,,,,,,,,,,,,,,,,,,None,None,,,,,,,,,,,,,123,0,123,0,1946.5347067999974,,,,,,,,,,,,,,,,,,,,,,,,,,,,,,,,,,,,,,,,,,,,,,,clips/clip_holo_10_nosub_1.mp4,audios/silence.mp3,visual,1946.5321664000003,1946.954282499999,1947.1542458000004,1947.1542458000004,1947.1541244666662,1957.3444531999994,1957.1204674999972,[6.038940099999309],1957.2110801999988,1957.2111220000006,None,1957.2111579999982,1957.211191899998,None,1948.4069277999988,,,,,,,,,,,,,,,,335,001,2026-04-01_17h59.32.359,exp_sofc,,2025.2.3,59.925811845544914,2026-04-01 17h59.32.848560 +0200,
,124,0,124,,,,,,,,,,,,,,,,,,,,,,None,None,,,,,,,,,,,,,124,0,124,0,1957.3444531999994,,,,,,,,,,,,,,,,,,,,,,,,,,,,,,,,,,,,,,,,,,,,,,,clips/clip_claude_06_sub_1.mp4,audios/clip_claude_06_sub_1.mp3,audiovisual,1957.3410119,1957.7203346999995,1957.9207433999982,1957.9207433999982,1957.920603566665,1970.6722356999999,1970.4838805,[4.103395499998442],1970.5782827999974,1970.578351199998,None,1970.5783950000005,1970.5784306999994,None,,,,,,,,,,,,,,,,,335,001,2026-04-01_17h59.32.359,exp_sofc,,2025.2.3,59.925811845544914,2026-04-01 17h59.32.848560 +0200,
,125,0,125,,,,,,,,,,,,,,,,,,,,,,None,None,,,,,,,,,,,,,125,0,125,0,1970.6722356999999,,,,,,,,,,,,,,,,,,,,,,,,,,,,,,,,,,,,,,,,,,,,,,,clips/clip_wurst_31_sub_1.mp4,audios/silence.mp3,visual,1970.6683544000007,1971.0829863,1971.283569299998,1971.283569299998,1971.2834829666647,1982.5033375999992,1982.3015750999984,[],1982.3993807999977,1982.399427299999,None,1982.3994992999978,1982.3995321000002,None,1972.5352299999977,,,,,,,,,,,,,,,,335,001,2026-04-01_17h59.32.359,exp_sofc,,2025.2.3,59.925811845544914,2026-04-01 17h59.32.848560 +0200,
,126,0,126,,,,,,,,,,,,,,,,,,,,,,4,None,3.8399638999981107,None,,,,,,,,,,,126,0,126,0,1982.5033375999992,,,,,,,,,,,,,,,,,,,,,,,,,,,,,,,,,,,,,,,,,,,,,,,clips/clip_wurst_03_nosub_1.mp4,audios/silence.mp3,visual,1982.5010356999992,1982.9095610999975,1983.1102427999976,1983.1102427999976,1983.1099498666665,1995.1164919999974,1995.0287793999996,[4.220816300003207],1995.1127581999972,1998.9735357999998,4,1998.9735843999988,1998.9736016999996,None,1984.3621480999973,4,1995.1164919999974,1995.1164919999974,1995.1164919999974,3.8399638999981107,None,,,,,,,,,,335,001,2026-04-01_17h59.32.359,exp_sofc,,2025.2.3,59.925811845544914,2026-04-01 17h59.32.848560 +0200,
,127,0,127,,,,,,,,,,,,,,,,,,,,,,None,None,,,,,,,,,,,,,127,0,127,0,1999.1025644999972,,,,,,,,,,,,,,,,,,,,,,,,,,,,,,,,,,,,,,,,,,,,,,,clips/clip_hund_08_sub_1.mp4,audios/clip_hund_08_sub_1.mp3,audiovisual,1999.0988862999984,1999.4740815999976,1999.6749672000005,1999.6749672000005,1999.6746640666645,2009.908864099998,2009.6900999999998,[],2009.7805621000007,2009.7806065000004,None,2009.7806375999971,2009.7806531999995,None,2009.6899378999988,,,,,,,,,,,,,,,,335,001,2026-04-01_17h59.32.359,exp_sofc,,2025.2.3,59.925811845544914,2026-04-01 17h59.32.848560 +0200,
,128,0,128,,,,,,,,,,,,,,,,,,,,,,None,None,,,,,,,,,,,,,128,0,128,0,2009.908864099998,,,,,,,,,,,,,,,,,,,,,,,,,,,,,,,,,,,,,,,,,,,,,,,clips/clip_hund_14_sub_2.mp4,audios/clip_hund_14_sub_2.mp3,audiovisual,2009.9051989,2010.2909946,2010.4920141000002,2010.4920141000002,2010.4918273666665,2020.5988507999973,2020.393741699998,[5.784293799999432],2020.4834864000004,2020.4835334999989,None,2020.483565399998,2020.483583199999,None,,,,,,,,,,,,,,,,,335,001,2026-04-01_17h59.32.359,exp_sofc,,2025.2.3,59.925811845544914,2026-04-01 17h59.32.848560 +0200,
,129,0,129,,,,,,,,,,,,,,,,,,,,,,None,None,,,,,,,,,,,,,129,0,129,0,2020.5988507999973,,,,,,,,,,,,,,,,,,,,,,,,,,,,,,,,,,,,,,,,,,,,,,,clips/clip_weißt_07_sub_1.mp4,audios/silence.mp3,visual,2020.5954050999972,2020.9832766,2021.1840128999975,2021.1840128999975,2021.184105966666,2031.109715399998,2030.9165629999989,[4.010431200000312],2030.9997191999973,2030.9997683999973,None,2030.9998108,2030.9998302999993,None,2022.435575899999,,,,,,,,,,,,,,,,335,001,2026-04-01_17h59.32.359,exp_sofc,,2025.2.3,59.925811845544914,2026-04-01 17h59.32.848560 +0200,
,130,0,130,,,,,,,,,,,,,,,,,,,,,,1,None,2.4228715999997803,None,,,,,,,,,,,130,0,130,0,2031.109715399998,,,,,,,,,,,,,,,,,,,,,,,,,,,,,,,,,,,,,,,,,,,,,,,clips/clip_herz_16_nosub_0.mp4,audios/clip_herz_16_nosub_0.mp3,audiovisual,2031.1057015000006,2031.5086660999987,2031.7089538,2031.7089538,2031.7087908666656,2040.8411596000005,2040.7399444000002,[],2040.8376069999977,2043.2684854,1,2043.2685474999998,2043.2685772000004,None,2040.739815599998,1,2040.8411596000005,2040.8411596000005,2040.8411596000005,2.4228715999997803,None,,,,,,,,,,335,001,2026-04-01_17h59.32.359,exp_sofc,,2025.2.3,59.925811845544914,2026-04-01 17h59.32.848560 +0200,
,131,0,131,,,,,,,,,,,,,,,,,,,,,,None,None,,,,,,,,,,,,,131,0,131,0,2043.4002034999976,,,,,,,,,,,,,,,,,,,,,,,,,,,,,,,,,,,,,,,,,,,,,,,clips/clip_herz_14_nosub_0.mp4,audios/clip_herz_14_nosub_0.mp3,audiovisual,2043.3960565999987,2043.76901,2043.9704130999999,2043.9704130999999,2043.969126266664,2054.7165535999993,2054.5027998999976,[],2054.6048895999993,2054.6049212,None,2054.6049491999984,2054.6049639999983,None,2054.5026610999994,,,,,,,,,,,,,,,,335,001,2026-04-01_17h59.32.359,exp_sofc,,2025.2.3,59.925811845544914,2026-04-01 17h59.32.848560 +0200,
,132,0,132,,,,,,,,,,,,,,,,,,,,,,None,None,,,,,,,,,,,,,132,0,132,0,2054.7165535999993,,,,,,,,,,,,,,,,,,,,,,,,,,,,,,,,,,,,,,,,,,,,,,,clips/clip_holo_22_sub_1.mp4,audios/clip_holo_22_sub_1.mp3,audiovisual,2054.7131138000004,2055.1177671000005,2055.3195973,2055.3195973,2055.3188161666662,2064.7117173999977,2064.5214252000005,[9.67321350000202],2064.610629999999,2064.6106646000007,None,2064.6106967999985,2064.6107244999985,None,2064.7117173999977,,,,,,,,,,,,,,,,335,001,2026-04-01_17h59.32.359,exp_sofc,,2025.2.3,59.925811845544914,2026-04-01 17h59.32.848560 +0200,
,133,0,133,,,,,,,,,,,,,,,,,,,,,,None,None,,,,,,,,,,,,,133,0,133,0,2064.7117173999977,,,,,,,,,,,,,,,,,,,,,,,,,,,,,,,,,,,,,,,,,,,,,,,clips/clip_wurst_23_sub_2.mp4,audios/silence.mp3,visual,2064.7093815000007,2065.1249231,2065.326305499999,2065.326305499999,2065.3257244666643,2076.0452810999996,2075.858543399998,"[4.606260499997006, 7.986148699998012]",2075.9446427999974,2075.944702099998,None,2075.944749099999,2075.944778199999,None,2066.5780252999975,,,,,,,,,,,,,,,,335,001,2026-04-01_17h59.32.359,exp_sofc,,2025.2.3,59.925811845544914,2026-04-01 17h59.32.848560 +0200,
,134,0,134,,,,,,,,,,,,,,,,,,,,,,2,None,6.2424298000005365,None,,,,,,,,,,,134,0,134,0,2076.0452810999996,,,,,,,,,,,,,,,,,,,,,,,,,,,,,,,,,,,,,,,,,,,,,,,clips/clip_wurst_29_nosub_1.mp4,audios/silence.mp3,visual,2076.0414015999995,2076.447199899998,2076.6477214999977,2076.6477214999977,2076.647585666666,2088.7707880999988,2088.6655790000004,[],2088.7670946,2095.0176971,2,2095.0177571999993,2095.017782499999,None,2077.8988720999987,2,2088.7707880999988,2088.7707880999988,2088.7707880999988,6.2424298000005365,None,,,,,,,,,,335,001,2026-04-01_17h59.32.359,exp_sofc,,2025.2.3,59.925811845544914,2026-04-01 17h59.32.848560 +0200,
,135,0,135,,,,,,,,,,,,,,,,,,,,,,None,None,,,,,,,,,,,,,135,0,135,0,2095.098421399998,,,,,,,,,,,,,,,,,,,,,,,,,,,,,,,,,,,,,,,,,,,,,,,clips/clip_weißt_01_nosub_1.mp4,audios/silence.mp3,visual,2095.0949416000003,2095.517857499999,2095.718348899998,2095.718348899998,2095.7197545666645,2106.949142999998,2106.753455899998,[6.071115099999588],2106.851012299998,2106.851045399999,None,2106.8510725999986,2106.8510892999984,None,2096.9701416999997,,,,,,,,,,,,,,,,335,001,2026-04-01_17h59.32.359,exp_sofc,,2025.2.3,59.925811845544914,2026-04-01 17h59.32.848560 +0200,
,136,0,136,,,,,,,,,,,,,,,,,,,,,,None,None,,,,,,,,,,,,,136,0,136,0,2106.949142999998,,,,,,,,,,,,,,,,,,,,,,,,,,,,,,,,,,,,,,,,,,,,,,,clips/clip_weißt_28_nosub_1.mp4,audios/silence.mp3,visual,2106.9434078999984,2107.3614794999994,2107.563546999998,2107.563546999998,2107.561760166664,2117.8352197999993,2117.644805699998,"[1.921925899998314, 6.771875200000068]",2117.7240937999995,2117.7241350999975,None,2117.7241780000004,2117.724199799999,None,2108.8136032999973,,,,,,,,,,,,,,,,335,001,2026-04-01_17h59.32.359,exp_sofc,,2025.2.3,59.925811845544914,2026-04-01 17h59.32.848560 +0200,
,137,0,137,,,,,,,,,,,,,,,,,,,,,,None,None,,,,,,,,,,,,,137,0,137,0,2117.8352197999993,,,,,,,,,,,,,,,,,,,,,,,,,,,,,,,,,,,,,,,,,,,,,,,clips/clip_lied_05_nosub_0.mp4,audios/clip_lied_05_nosub_0.mp3,audiovisual,2117.831481199999,2118.2362448999993,2118.4369219,2118.4369219,2118.4367939666668,2128.0303915999975,2127.836758999998,[],2127.9097785999984,2127.9098154999992,None,2127.909850799999,2127.9098720999973,None,,,,,,,,,,,,,,,,,335,001,2026-04-01_17h59.32.359,exp_sofc,,2025.2.3,59.925811845544914,2026-04-01 17h59.32.848560 +0200,
,138,0,138,,,,,,,,,,,,,,,,,,,,,,None,None,,,,,,,,,,,,,138,0,138,0,2128.0303915999975,,,,,,,,,,,,,,,,,,,,,,,,,,,,,,,,,,,,,,,,,,,,,,,clips/clip_wurst_27_nosub_1.mp4,audios/clip_wurst_27_nosub_1.mp3,audiovisual,2128.026710099999,2128.4114295,2128.6114033999984,2128.6114033999984,2128.6113077666673,2139.0185746999996,2138.815840199997,[5.97144379999736],2138.917272499999,2138.9173348000004,None,2138.9173757999997,2138.9173967999996,None,,,,,,,,,,,,,,,,,335,001,2026-04-01_17h59.32.359,exp_sofc,,2025.2.3,59.925811845544914,2026-04-01 17h59.32.848560 +0200,
,139,0,139,,,,,,,,,,,,,,,,,,,,,,None,None,,,,,,,,,,,,,139,0,139,0,2139.0185746999996,,,,,,,,,,,,,,,,,,,,,,,,,,,,,,,,,,,,,,,,,,,,,,,clips/clip_weißt_20_sub_1.mp4,audios/silence.mp3,visual,2139.014067699998,2139.4194653999984,2139.6199868999975,2139.6199868999975,2139.6196712666647,2149.654084599999,2149.452928499999,[8.31229280000116],2149.543555799999,2149.5436188999993,None,2149.5436682,2149.5437103999975,None,2140.854720299998,,,,,,,,,,,,,,,,335,001,2026-04-01_17h59.32.359,exp_sofc,,2025.2.3,59.925811845544914,2026-04-01 17h59.32.848560 +0200,
,140,0,140,,,,,,,,,,,,,,,,,,,,,,None,None,,,,,,,,,,,,,140,0,140,0,2149.654084599999,,,,,,,,,,,,,,,,,,,,,,,,,,,,,,,,,,,,,,,,,,,,,,,clips/clip_lied_15_nosub_2.mp4,audios/clip_lied_15_nosub_2.mp3,audiovisual,2149.650251699997,2150.044494599999,2150.245099699998,2150.245099699998,2150.2450406666653,2157.789895099999,2157.5729213999984,"[3.1765331999995396, 7.171992099996714]",2157.684873899998,2157.684905899998,None,2157.6849330000005,2157.684951199997,None,,,,,,,,,,,,,,,,,335,001,2026-04-01_17h59.32.359,exp_sofc,,2025.2.3,59.925811845544914,2026-04-01 17h59.32.848560 +0200,
,141,0,141,,,,,,,,,,,,,,,,,,,,,,None,None,,,,,,,,,,,,,141,0,141,0,2157.789895099999,,,,,,,,,,,,,,,,,,,,,,,,,,,,,,,,,,,,,,,,,,,,,,,clips/clip_claude_07_sub_0.mp4,audios/silence.mp3,visual,2157.785930099999,2158.191014099997,2158.3907839999993,2158.3907839999993,2158.392341766667,2168.624583099998,2168.4229818999993,[],2168.5084763999985,2168.5085505999996,None,2168.508609999997,2168.5086456999998,None,2159.6425194999974,,,,,,,,,,,,,,,,335,001,2026-04-01_17h59.32.359,exp_sofc,,2025.2.3,59.925811845544914,2026-04-01 17h59.32.848560 +0200,
,142,0,142,,,,,,,,,,,,,,,,,,,,,,None,None,,,,,,,,,,,,,142,0,142,0,2168.624583099998,,,,,,,,,,,,,,,,,,,,,,,,,,,,,,,,,,,,,,,,,,,,,,,clips/clip_herz_08_sub_0.mp4,audios/clip_herz_08_sub_0.mp3,audiovisual,2168.6212070999973,2169.0158916,2169.215981199999,2169.215981199999,2169.2154867666654,2181.4471013999973,2181.2347894999984,"[5.3954164999995555, 9.626229199999216]",2181.3311194999987,2181.3312186000003,None,2181.3312707000005,2181.3312893,None,2181.4471013999973,,,,,,,,,,,,,,,,335,001,2026-04-01_17h59.32.359,exp_sofc,,2025.2.3,59.925811845544914,2026-04-01 17h59.32.848560 +0200,
,143,0,143,,,,,,,,,,,,,,,,,,,,,,None,None,,,,,,,,,,,,,143,0,143,0,2181.4471013999973,,,,,,,,,,,,,,,,,,,,,,,,,,,,,,,,,,,,,,,,,,,,,,,clips/clip_hund_22_nosub_1.mp4,audios/clip_hund_22_nosub_1.mp3,audiovisual,2181.443577599999,2181.8316717999987,2182.0322613999997,2182.0322613999997,2182.032012766664,2192.2196970999976,2192.0487498,[8.53562679999959],2192.1319143,2192.1319640999973,None,2192.1319965000002,2192.1320177999987,None,2192.0485751999986,,,,,,,,,,,,,,,,335,001,2026-04-01_17h59.32.359,exp_sofc,,2025.2.3,59.925811845544914,2026-04-01 17h59.32.848560 +0200,
,144,0,144,,,,,,,,,,,,,,,,,,,,,,4,None,3.1126279000018258,None,,,,,,,,,,,144,0,144,0,2192.2196970999976,,,,,,,,,,,,,,,,,,,,,,,,,,,,,,,,,,,,,,,,,,,,,,,clips/clip_herz_01_nosub_1.mp4,audios/silence.mp3,visual,2192.2172630999994,2192.6316630999972,2192.8324313999983,2192.8324313999983,2192.832045266667,2203.5393207999987,2203.4330744,[6.236060799998086],2203.5358702999984,2206.662140299999,4,2206.6622038999994,2206.6622325999997,None,2194.084747099998,4,2203.5393207999987,2203.5393207999987,2203.5393207999987,3.1126279000018258,None,,,,,,,,,,335,001,2026-04-01_17h59.32.359,exp_sofc,,2025.2.3,59.925811845544914,2026-04-01 17h59.32.848560 +0200,
