instruction_text,thisN,thisTrialN,thisRepN,key_resp_instruction.keys,key_resp_instruction.rt,key_resp_instruction.duration,clip_file,clip_path,sound_path,movie,subtitles,n_cut,clip_num,first_cut,second_cut,clip_duration,attention_check_question,attention_check_correct,attention_check_distractor_1,attention_check_distractor_2,attention_check_distractor_3,prac_attention_resp.keys,prac_attention_resp.rt,prac_attention_resp.duration,exp_atttention_resp.keys,exp_pause_resp.keys,exp_atttention_resp.rt,exp_atttention_resp.duration,exp_pause_resp.rt,exp_pause_resp.duration,instruction_trials.thisRepN,instruction_trials.thisTrialN,instruction_trials.thisN,instruction_trials.thisIndex,practice_trials.thisRepN,practice_trials.thisTrialN,practice_trials.thisN,practice_trials.thisIndex,experiment_trials.thisRepN,experiment_trials.thisTrialN,experiment_trials.thisN,experiment_trials.thisIndex,thisRow.t,notes,instructions.started,text_instruction.started,key_resp_instruction.started,instructions.stopped,instruction_trials.key_resp_instruction.keys,instruction_trials.key_resp_instruction.rt,instruction_trials.key_resp_instruction.duration,informed_consent.started,slider_informed_consent.started,text_informed_consent.started,informed_consent.stopped,slider_informed_consent.response,slider_informed_consent.rt,begin_practice.started,begin_practice_text.started,begin_practice.stopped,Practice_clip_name,Practice_video_used,Practice_audio_used,Practice_modality,Practice_subtitles,Practice_attention_check,practice_clip.started,prac_feedback.started,prac_fixation_cross.started,prac_fixation_cross.stopped,prac_clip.started,prac_sound.started,prac_sound.stopped,prac_clip.stopped,practice_clip.stopped,prac_all_cut_rts,practice_attention_check.started,practice_attention_check.stopped,practice_trials.prac_attention_resp.keys,Practice_correct_key_required,prac_attention_resp.started,prac_question.started,prac_options.started,practice_trials.prac_attention_resp.rt,practice_trials.prac_attention_resp.duration,begin_experiment.started,begin_experiment_text.started,begin_experiment.stopped,video_used,audio_used,condition_modality,experiment_clip.started,exp_fixation_cross.started,exp_fixation_cross.stopped,exp_clip.started,exp_sound.started,exp_sound.stopped,exp_clip.stopped,experiment_clip.stopped,all_cut_rts,experiment_attention_check.started,experiment_attention_check.stopped,experiment_trials.exp_atttention_resp.keys,experiment_pause.started,experiment_pause.stopped,experiment_trials.exp_pause_resp.keys,correct_key_required,exp_atttention_resp.started,exp_question.started,exp_options.started,experiment_trials.exp_atttention_resp.rt,experiment_trials.exp_atttention_resp.duration,exp_pause_text.started,exp_pause_resp.started,exp_countdown.started,experiment_trials.exp_pause_resp.rt,experiment_trials.exp_pause_resp.duration,exp_pause_resp.stopped,exp_countdown.stopped,end.started,text_end.started,participant,session,date,expName,expVersion,psychopyVersion,frameRate,expStart,
"Herzlich willkommen!

Vielen Dank, dass Sie an unserer Studie teilnehmen. Die Untersuchung wird insgesamt etwa 35 Minuten in Anspruch nehmen.

Bevor wir beginnen, beachten Sie bitte folgende Voraussetzungen für die Teilnahme:
• Sie sind mindestens 18 Jahre alt.
• Ihre Muttersprache ist Deutsch.

(Drücken Sie die Leertaste, um fortzufahren)",0,0,0,space,1.6071164999884786,None,,,,,,,,,,,,,,,,,,,,,,,,,0,0,0,0,,,,,,,,,0.03395839998847805,,0.010271699997247197,0.03395839998847805,0.03395839998847805,1.649601699988125,space,1.6071164999884786,None,,,,,,,,,,,,,,,,,,,,,,,,,,,,,,,,,,,,,,,,,,,,,,,,,,,,,,,,,,,,,,,,,,,,,,,340,001,2026-04-02_13h31.21.215,exp_sofc,,2025.2.3,60.407411745226796,2026-04-02 13h31.21.983025 +0200,
"Ablauf der Studie

Ihnen werden in schneller Abfolge viele kurze Filmclips gezeigt.
Ihre Aufgabe ist einfach:

Drücken Sie jedes Mal die Leertaste, wenn Sie einen Filmschnitt (Cut) erkennen.

Zusätzlich werden Ihnen gelegentlich kurze Verständnisfragen zu den gezeigten Clips gestellt.

(Drücken Sie die Leertaste, um fortzufahren),",1,1,0,space,3.7897996999963652,None,,,,,,,,,,,,,,,,,,,,,,,,,0,1,1,1,,,,,,,,,1.6704910999978893,,1.6497065000003204,1.6704910999978893,1.6704910999978893,5.472400099999504,space,3.7897996999963652,None,,,,,,,,,,,,,,,,,,,,,,,,,,,,,,,,,,,,,,,,,,,,,,,,,,,,,,,,,,,,,,,,,,,,,,,340,001,2026-04-02_13h31.21.215,exp_sofc,,2025.2.3,60.407411745226796,2026-04-02 13h31.21.983025 +0200,
"Freiwilligkeit Ihrer Teilnahme

Ihre Teilnahme an dieser Studie ist absolut freiwillig. Sie können das Experiment jederzeit und ohne Angabe von Gründen abbrechen, ohne dass Ihnen daraus irgendwelche Nachteile entstehen.

Sollten Sie die Studie vorzeitig beenden, werden Ihre bis dahin erhobenen Daten umgehend gelöscht und nicht gespeichert.

(Drücken Sie die Leertaste, um fortzufahren)",2,2,0,space,49.767282000000705,None,,,,,,,,,,,,,,,,,,,,,,,,,0,2,2,2,,,,,,,,,5.4950343999953475,,5.472526199999265,5.4950343999953475,5.4950343999953475,55.27502239999012,space,49.767282000000705,None,,,,,,,,,,,,,,,,,,,,,,,,,,,,,,,,,,,,,,,,,,,,,,,,,,,,,,,,,,,,,,,,,,,,,,,340,001,2026-04-02_13h31.21.215,exp_sofc,,2025.2.3,60.407411745226796,2026-04-02 13h31.21.983025 +0200,
"Datenschutz und Anonymität

Die Erhebung und Auswertung Ihrer Daten erfolgt am Fachbereich Psychologie der Universität Tübingen und ist vollständig anonym. Ihr Name wird zu keinem Zeitpunkt erfragt oder gespeichert. Niemand wird Ihre Daten mit Ihrer Person in Verbindung bringen können.

Die anonymisierten Experimentaldaten werden nach Abschluss der Erhebung für mindestens 10 Jahre gespeichert und zu Forschungszwecken in einer öffentlichen Datenbank zugänglich gemacht.

(Drücken Sie die Leertaste, um fortzufahren),",3,3,0,space,0.8566417999973055,None,,,,,,,,,,,,,,,,,,,,,,,,,0,3,3,3,,,,,,,,,55.30483199999435,,55.2751556999865,55.30483199999435,55.30483199999435,56.176260399995954,space,0.8566417999973055,None,,,,,,,,,,,,,,,,,,,,,,,,,,,,,,,,,,,,,,,,,,,,,,,,,,,,,,,,,,,,,,,,,,,,,,,340,001,2026-04-02_13h31.21.215,exp_sofc,,2025.2.3,60.407411745226796,2026-04-02 13h31.21.983025 +0200,
"Einverständniserklärung

Bitte lesen Sie die folgende Erklärung aufmerksam durch:

Ich bestätige, dass ich über 18 Jahre alt bin und ausreichend Zeit hatte, mich für die Teilnahme zu entscheiden. Ich wurde über die Erhebung, Verarbeitung und öffentliche Zugänglichmachung meiner anonymisierten Daten angemessen informiert.
Ich bin mir bewusst, dass ich das Experiment jederzeit abbrechen kann.

(Drücken Sie die Leertaste, um fortzufahren)",4,4,0,space,0.4508256999979494,None,,,,,,,,,,,,,,,,,,,,,,,,,0,4,4,4,,,,,,,,,56.200109400000656,,56.176378399992245,56.200109400000656,56.200109400000656,56.65995489999477,space,0.4508256999979494,None,,,,,,,,,,,,,,,,,,,,,,,,,,,,,,,,,,,,,,,,,,,,,,,,,,,,,,,,,,,,,,,,,,,,,,,340,001,2026-04-02_13h31.21.215,exp_sofc,,2025.2.3,60.407411745226796,2026-04-02 13h31.21.983025 +0200,
,,,,,,,,,,,,,,,,,,,,,,,,,,,,,,,,,,,,,,,,,,,,,,,,,,,,56.660861500000465,56.67606319999322,56.67606319999322,60.115767899987986,ich stimme zu,3.438933299999917,,,,,,,,,,,,,,,,,,,,,,,,,,,,,,,,,,,,,,,,,,,,,,,,,,,,,,,,,,,,,,,,,340,001,2026-04-02_13h31.21.215,exp_sofc,,2025.2.3,60.407411745226796,2026-04-02 13h31.21.983025 +0200,
,,,,,,,,,,,,,,,,,,,,,,,,,,,,,,,,,,,,,,,,,,,,,,,,,,,,,,,,,,60.1158093999984,60.13148179999553,65.12298719999671,,,,,,,,,,,,,,,,,,,,,,,,,,,,,,,,,,,,,,,,,,,,,,,,,,,,,,,,,,,,,,340,001,2026-04-02_13h31.21.215,exp_sofc,,2025.2.3,60.407411745226796,2026-04-02 13h31.21.983025 +0200,
,0,0,0,,,,clip_wurst_09_sub_1,clips/clip_wurst_09_sub_1.mp4,audios/clip_wurst_09_sub_1.mp3,wurst,sub,1,9,3666.0,NA,11267,Wer sind die alten Menschen wahrscheinlich?,Großeltern,Eltern,Geschwister,Nachbarn,None,,,,,,,,,,,,,0,0,0,10,,,,,65.39592379999522,,,,,,,,,,,,,,,,,,clip_hund_02_sub_1,clips/clip_hund_02_sub_1.mp4,audios/clip_hund_02_sub_1.mp3,audiovisual,sub,False,65.38939299999038,65.39592379999522,65.62320979998913,65.82415729999775,65.82415729999775,65.8241850666566,75.74306049999723,75.95128769999428,75.74496279998857,[9.34319559999858],75.84304649999831,75.84308469999814,None,,,,,,,,,,,,,,,,,,,,,,,,,,,,,,,,,,,,,,,,,,,340,001,2026-04-02_13h31.21.215,exp_sofc,,2025.2.3,60.407411745226796,2026-04-02 13h31.21.983025 +0200,
,1,1,0,,,,clip_weißt_10_nosub_1,clips/clip_weißt_10_nosub_1.mp4,audios/clip_weißt_10_nosub_1.mp3,weißt,nosub,1,10,4280.0,NA,11000,Was macht der Mann?,er greift an den Fernseher,er schaltet das Radio ein,er wirft eine Flasche,er öffnet das Fenster,None,,,,,,,,,,,,,0,1,1,6,,,,,75.95128769999428,,,,,,,,,,,,,,,,,,clip_weißt_09_sub_1,clips/clip_weißt_09_sub_1.mp4,audios/silence.mp3,visual,sub,False,75.94363899999007,75.95128769999428,76.35212049999973,76.5527168999979,76.5527168999979,76.55249856666002,77.80448479999905,85.79285559999698,85.5849440999882,[6.216284900001483],85.68255040000076,85.68260069999087,None,,,,,,,,,,,,,,,,,,,,,,,,,,,,,,,,,,,,,,,,,,,340,001,2026-04-02_13h31.21.215,exp_sofc,,2025.2.3,60.407411745226796,2026-04-02 13h31.21.983025 +0200,
,2,2,0,,,,clip_hund_26_sub_1,clips/clip_hund_26_sub_1.mp4,audios/silence.mp3,hund,sub,0,26,NA,NA,9333,Wie wirkt die Frau?,amüsiert,hasserfüllt,traurig,ängstlich,None,,,,,,,,,,,,,0,2,2,3,,,,,85.79285559999698,,,,,,,,,,,,,,,,,,clip_hund_31_sub_0,clips/clip_hund_31_sub_0.mp4,audios/silence.mp3,visual,sub,False,85.7850286999892,85.79285559999698,86.19333059999917,86.39314929999819,86.39314929999819,86.39307926665448,87.64483609999297,95.07730710000033,94.85771019999811,[3.2224447000044165],94.9542669999937,94.9543061999866,None,,,,,,,,,,,,,,,,,,,,,,,,,,,,,,,,,,,,,,,,,,,340,001,2026-04-02_13h31.21.215,exp_sofc,,2025.2.3,60.407411745226796,2026-04-02 13h31.21.983025 +0200,
,3,3,0,,,,clip_hund_31_sub_0,clips/clip_hund_31_sub_0.mp4,audios/silence.mp3,hund,sub,1,31,1966.0,NA,8433,Welche Tageszeit ist es?,abends,morgens,mittags,nachts,1,3.0402180999954,None,,,,,,,,,,,0,3,3,9,,,,,95.07730710000033,,,,,,,,,,,,,,,,,,clip_hund_06_nosub_0,clips/clip_hund_06_nosub_0.mp4,audios/clip_hund_06_nosub_0.mp3,audiovisual,nosub,True,95.0699670999893,95.07730710000033,95.45835209998768,95.67541739999433,95.65729979999014,95.65714076666724,,106.65947799998685,106.54192439999315,[],106.65204689999518,109.71452219999628,1,1,106.65947799998685,106.65947799998685,106.65947799998685,3.0402180999954,None,,,,,,,,,,,,,,,,,,,,,,,,,,,,,,,,,,,,,340,001,2026-04-02_13h31.21.215,exp_sofc,,2025.2.3,60.407411745226796,2026-04-02 13h31.21.983025 +0200,
,4,4,0,,,,clip_weißt_05_sub_0,clips/clip_weißt_05_sub_0.mp4,audios/clip_weißt_05_sub_0.mp3,weißt,sub,0,5,NA,NA,9767,Wer trägt die Leiter?,die Frau,der Mann,beide,keiner,None,,,,,,,,,,,,,0,4,4,0,,,,,109.83668269999907,,,,,,,,,,,,,,,,,,clip_weißt_18_nosub_1,clips/clip_weißt_18_nosub_1.mp4,audios/silence.mp3,visual,nosub,False,109.8293660999916,109.83668269999907,110.21335309999995,110.41379609999422,110.41379609999422,110.41398136665909,111.66557879999164,122.6599767000007,122.43383559999347,[7.019482200004859],122.53308789999573,122.53312519998872,None,,,,,,,,,,,,,,,,,,,,,,,,,,,,,,,,,,,,,,,,,,,340,001,2026-04-02_13h31.21.215,exp_sofc,,2025.2.3,60.407411745226796,2026-04-02 13h31.21.983025 +0200,
,5,5,0,,,,clip_hund_06_nosub_0,clips/clip_hund_06_nosub_0.mp4,audios/clip_hund_06_nosub_0.mp3,hund,nosub,0,6,NA,NA,10860,Wie sieht das Studio aus?,unaufgeräumt,sehr ordentlich,komplett leer,stark überfüllt,None,,,,,,,,,,,,,0,5,5,2,,,,,122.6599767000007,,,,,,,,,,,,,,,,,,clip_weißt_05_sub_0,clips/clip_weißt_05_sub_0.mp4,audios/clip_weißt_05_sub_0.mp3,audiovisual,sub,False,122.65056299998832,122.6599767000007,123.0349220999924,123.23553890000039,123.23553890000039,123.23436016665461,133.256993899995,133.256993899995,133.0467842999933,[],133.14355109998723,133.1436063000001,None,,,,,,,,,,,,,,,,,,,,,,,,,,,,,,,,,,,,,,,,,,,340,001,2026-04-02_13h31.21.215,exp_sofc,,2025.2.3,60.407411745226796,2026-04-02 13h31.21.983025 +0200,
,6,6,0,,,,clip_hund_02_sub_1,clips/clip_hund_02_sub_1.mp4,audios/clip_hund_02_sub_1.mp3,hund,sub,1,2,8300.0,NA,9900,Welche Farbe hat der Pullover der Frau?,grün,schwarz,blau,rot,3,3.3105108000017935,None,,,,,,,,,,,0,6,6,8,,,,,133.256993899995,,,,,,,,,,,,,,,,,,clip_hund_26_sub_1,clips/clip_hund_26_sub_1.mp4,audios/silence.mp3,visual,sub,True,133.2504265999887,133.256993899995,133.64969549998932,133.8519937999954,133.8519937999954,133.85136036665452,135.10187439998845,143.31470669999544,143.21653369998967,[],143.30944049998652,146.6286407000007,3,3,143.31470669999544,143.31470669999544,143.31470669999544,3.3105108000017935,None,,,,,,,,,,,,,,,,,,,,,,,,,,,,,,,,,,,,,340,001,2026-04-02_13h31.21.215,exp_sofc,,2025.2.3,60.407411745226796,2026-04-02 13h31.21.983025 +0200,
,7,7,0,,,,clip_hund_25_sub_1,clips/clip_hund_25_sub_1.mp4,audios/silence.mp3,hund,sub,1,25,5466.0,NA,8300,Mit was essen die Personen?,mit ihren Händen,mit Messer und Gabel,mit Stäbchen,mit einem Löffel,1,12.24562159999914,None,,,,,,,,,,,0,7,7,11,,,,,146.7463931999955,,,,,,,,,,,,,,,,,,clip_weißt_21_nosub_0,clips/clip_weißt_21_nosub_0.mp4,audios/silence.mp3,visual,nosub,True,146.73939139999857,146.7463931999955,147.1302493999974,147.32951999999932,147.32951999999932,147.32977896665787,148.58143279999786,157.55214399998658,157.42905279999832,[],157.54667869998957,169.79994509999233,1,1,157.55214399998658,157.55214399998658,157.55214399998658,12.24562159999914,None,,,,,,,,,,,,,,,,,,,,,,,,,,,,,,,,,,,,,340,001,2026-04-02_13h31.21.215,exp_sofc,,2025.2.3,60.407411745226796,2026-04-02 13h31.21.983025 +0200,
,8,8,0,,,,clip_weißt_18_nosub_1,clips/clip_weißt_18_nosub_1.mp4,audios/silence.mp3,weißt,nosub,1,18,5680.0,NA,12000,Wie wirken die Personen?,überrascht,wütend,verzweifelt,gelangweilt,None,,,,,,,,,,,,,0,8,8,7,,,,,169.9666167999967,,,,,,,,,,,,,,,,,,clip_hund_28_nosub_0,clips/clip_hund_28_nosub_0.mp4,audios/clip_hund_28_nosub_0.mp3,audiovisual,nosub,False,169.95849659999658,169.9666167999967,170.3003808999929,170.50082149999798,170.50082149999798,170.5006920666531,,180.5748472999985,180.36464099999284,[],180.4671287999954,180.46716059999017,None,,,,,,,,,,,,,,,,,,,,,,,,,,,,,,,,,,,,,,,,,,,340,001,2026-04-02_13h31.21.215,exp_sofc,,2025.2.3,60.407411745226796,2026-04-02 13h31.21.983025 +0200,
,9,9,0,,,,clip_hund_28_nosub_0,clips/clip_hund_28_nosub_0.mp4,audios/clip_hund_28_nosub_0.mp3,hund,nosub,0,28,NA,NA,9840,Was steht auf dem Tisch vor den Personen?,Weinflasche mit Gläsern,Wasser,Bier,Kaffee,1,70.12709900000482,None,,,,,,,,,,,0,9,9,4,,,,,180.5748472999985,,,,,,,,,,,,,,,,,,clip_hund_25_sub_1,clips/clip_hund_25_sub_1.mp4,audios/silence.mp3,visual,sub,True,180.56833499998902,180.5748472999985,180.9753417999891,181.17506839999987,181.17506839999987,181.1755350666538,182.42871670000022,189.6286318999919,189.50746109998727,[6.746709500002908],189.6223575999902,259.76556829999026,1,1,189.6286318999919,189.6286318999919,189.6286318999919,70.12709900000482,None,,,,,,,,,,,,,,,,,,,,,,,,,,,,,,,,,,,,,340,001,2026-04-02_13h31.21.215,exp_sofc,,2025.2.3,60.407411745226796,2026-04-02 13h31.21.983025 +0200,
,10,10,0,,,,clip_weißt_21_nosub_0,clips/clip_weißt_21_nosub_0.mp4,audios/silence.mp3,weißt,nosub,0,21,NA,NA,10080,Wo stehen die Personen?,am Balkongeländer,am Strand,an einer Bushaltestelle,im Wald,None,,,,,,,,,,,,,0,10,10,1,,,,,259.8921473999944,,,,,,,,,,,,,,,,,,clip_wurst_09_sub_1,clips/clip_wurst_09_sub_1.mp4,audios/clip_wurst_09_sub_1.mp3,audiovisual,sub,False,259.8853684999922,259.8921473999944,260.26591149999877,260.46789989998797,260.46789989998797,260.4661118666593,,271.98786459999974,271.7518454999954,[4.953033500001766],271.8486550999951,271.8486910999927,None,,,,,,,,,,,,,,,,,,,,,,,,,,,,,,,,,,,,,,,,,,,340,001,2026-04-02_13h31.21.215,exp_sofc,,2025.2.3,60.407411745226796,2026-04-02 13h31.21.983025 +0200,
,11,11,0,,,,clip_weißt_09_sub_1,clips/clip_weißt_09_sub_1.mp4,audios/silence.mp3,weißt,sub,1,9,4866.0,NA,9000,Was macht die Frau?,sie wickelt ein Band auf,sie näht,sie strickt,sie faltet Wäsche,None,,,,,,,,,,,,,0,11,11,5,,,,,271.98786459999974,,,,,,,,,,,,,,,,,,clip_weißt_10_nosub_1,clips/clip_weißt_10_nosub_1.mp4,audios/clip_weißt_10_nosub_1.mp3,audiovisual,nosub,False,271.9812588999921,271.98786459999974,272.35467190000054,272.5549524999951,272.5549524999951,272.55489886665987,283.57155839999905,283.67785339998954,283.57269039998937,[5.3658072000107495],283.67123239999637,283.6712675999879,None,,,,,,,,,,,,,,,,,,,,,,,,,,,,,,,,,,,,,,,,,,,340,001,2026-04-02_13h31.21.215,exp_sofc,,2025.2.3,60.407411745226796,2026-04-02 13h31.21.983025 +0200,
,,,,,,,,,,,,,,,,,,,,,,,,,,,,,,,,,,,,,,,,,,,,,,,,,,,,,,,,,,,,,,,,,,,,,,,,,,,,,,,,,,,,,,283.6713994999882,283.67785339998954,288.6715945999895,,,,,,,,,,,,,,,,,,,,,,,,,,,,,,,,,,340,001,2026-04-02_13h31.21.215,exp_sofc,,2025.2.3,60.407411745226796,2026-04-02 13h31.21.983025 +0200,
,0,0,0,,,,,,,,,,,,,,,,,,,,,,None,None,,,,,,,,,,,,,0,0,0,0,288.77566279999155,,,,,,,,,,,,,,,,,,,,,,,,,,,,,,,,,,,,,,,,,,,,,,clips/clip_lied_19_nosub_1.mp4,audios/silence.mp3,visual,288.76966169998923,289.1804134999984,289.3821663999988,289.3821663999988,289.3813226666573,290.6327306999883,300.29880589999084,300.08155629999237,[5.921222900011344],300.18558479999774,300.18562779999047,None,300.18569449998904,300.18572329999006,None,,,,,,,,,,,,,,,,340,001,2026-04-02_13h31.21.215,exp_sofc,,2025.2.3,60.407411745226796,2026-04-02 13h31.21.983025 +0200,
,1,0,1,,,,,,,,,,,,,,,,,,,,,,4,None,4.903223599991179,None,,,,,,,,,,,1,0,1,0,300.29880589999084,,,,,,,,,,,,,,,,,,,,,,,,,,,,,,,,,,,,,,,,,,,,,,clips/clip_wurst_35_nosub_0.mp4,audios/clip_wurst_35_nosub_0.mp3,audiovisual,300.29243839999253,300.6902342999965,300.8909558999876,300.8909558999876,300.89057166666703,,310.30153209999844,310.190351799989,[],310.2958471999882,315.20989980000013,4,315.209953499987,315.20997189999616,None,3,310.30153209999844,310.30153209999844,310.30153209999844,4.903223599991179,None,,,,,,,,,,340,001,2026-04-02_13h31.21.215,exp_sofc,,2025.2.3,60.407411745226796,2026-04-02 13h31.21.983025 +0200,
,2,0,2,,,,,,,,,,,,,,,,,,,,,,1,None,7.994948499996099,None,,,,,,,,,,,2,0,2,0,315.3140410999913,,,,,,,,,,,,,,,,,,,,,,,,,,,,,,,,,,,,,,,,,,,,,,clips/clip_hund_34_sub_1.mp4,audios/silence.mp3,visual,315.30788189999294,315.7190016999957,315.9200809999893,315.9200809999893,315.9191662666601,317.1714432000008,326.46960179999587,326.3535181999905,[],326.4628309999971,334.48172859998886,1,334.48178799999005,334.48181489999115,None,1,326.46960179999587,326.46960179999587,326.46960179999587,7.994948499996099,None,,,,,,,,,,340,001,2026-04-02_13h31.21.215,exp_sofc,,2025.2.3,60.407411745226796,2026-04-02 13h31.21.983025 +0200,
,3,0,3,,,,,,,,,,,,,,,,,,,,,,None,None,,,,,,,,,,,,,3,0,3,0,334.6187534999917,,,,,,,,,,,,,,,,,,,,,,,,,,,,,,,,,,,,,,,,,,,,,,clips/clip_holo_26_nosub_2.mp4,audios/clip_holo_26_nosub_2.mp3,audiovisual,334.6137568999984,334.9854301999876,335.1858693999966,335.1858693999966,335.1861109666536,,344.59896299999673,344.3843027999974,"[5.950477599995793, 9.267718399991281]",344.4883484999882,344.4883877999964,None,344.4884355999966,344.4884588999994,None,,,,,,,,,,,,,,,,340,001,2026-04-02_13h31.21.215,exp_sofc,,2025.2.3,60.407411745226796,2026-04-02 13h31.21.983025 +0200,
,4,0,4,,,,,,,,,,,,,,,,,,,,,,None,None,,,,,,,,,,,,,4,0,4,0,344.59896299999673,,,,,,,,,,,,,,,,,,,,,,,,,,,,,,,,,,,,,,,,,,,,,,clips/clip_herz_04_nosub_0.mp4,audios/silence.mp3,visual,344.5932940999919,344.9994752999919,345.1994532999961,345.1994532999961,345.19924116666175,346.45173119999527,356.4211914999905,356.21714999999676,[8.264113000012003],356.3012638999935,356.3013241000008,None,356.3013723999902,356.3013901999948,None,,,,,,,,,,,,,,,,340,001,2026-04-02_13h31.21.215,exp_sofc,,2025.2.3,60.407411745226796,2026-04-02 13h31.21.983025 +0200,
,5,0,5,,,,,,,,,,,,,,,,,,,,,,4,None,11.027487600003951,None,,,,,,,,,,,5,0,5,0,356.4211914999905,,,,,,,,,,,,,,,,,,,,,,,,,,,,,,,,,,,,,,,,,,,,,,clips/clip_wurst_15_nosub_2.mp4,audios/silence.mp3,visual,356.4155674999929,356.80893059998925,357.0091809999867,357.0091809999867,357.0089676666578,358.26079949999985,366.56391499999154,366.4406336999964,"[5.5398996000003535, 8.422319999997853]",366.55818349999026,377.6081539000006,4,377.608201799987,377.6082236999937,None,2,366.56391499999154,366.56391499999154,366.56391499999154,11.027487600003951,None,,,,,,,,,,340,001,2026-04-02_13h31.21.215,exp_sofc,,2025.2.3,60.407411745226796,2026-04-02 13h31.21.983025 +0200,
,6,0,6,,,,,,,,,,,,,,,,,,,,,,None,None,,,,,,,,,,,,,6,0,6,0,377.73031269999046,,,,,,,,,,,,,,,,,,,,,,,,,,,,,,,,,,,,,,,,,,,,,,clips/clip_hund_01_sub_0.mp4,audios/clip_hund_01_sub_0.mp3,audiovisual,377.72461399999156,378.1084036999964,378.3095413999981,378.3095413999981,378.30866916665786,,389.32759579998674,389.10551419999683,[],389.2045974999928,389.204630799999,None,389.20467449999705,389.2046927999909,None,,,,,,,,,,,,,,,,340,001,2026-04-02_13h31.21.215,exp_sofc,,2025.2.3,60.407411745226796,2026-04-02 13h31.21.983025 +0200,
,7,0,7,,,,,,,,,,,,,,,,,,,,,,None,None,,,,,,,,,,,,,7,0,7,0,389.32759579998674,,,,,,,,,,,,,,,,,,,,,,,,,,,,,,,,,,,,,,,,,,,,,,clips/clip_lied_18_sub_2.mp4,audios/silence.mp3,visual,389.3220908999938,389.7108206999983,389.9120995999983,389.9120995999983,389.9108264666613,391.16285889998835,400.83622109999123,400.59515609999653,"[5.373317799996585, 8.0284096999967]",400.7058446999872,400.705913599988,None,400.705962299995,400.70598179999797,None,,,,,,,,,,,,,,,,340,001,2026-04-02_13h31.21.215,exp_sofc,,2025.2.3,60.407411745226796,2026-04-02 13h31.21.983025 +0200,
,8,0,8,,,,,,,,,,,,,,,,,,,,,,3,None,3.6225343000114663,None,,,,,,,,,,,8,0,8,0,400.83622109999123,,,,,,,,,,,,,,,,,,,,,,,,,,,,,,,,,,,,,,,,,,,,,,clips/clip_holo_07_nosub_0.mp4,audios/clip_holo_07_nosub_0.mp3,audiovisual,400.83103289999417,401.219076399997,401.41965419999906,401.41965419999906,401.41938786665946,,410.94225129998813,410.82546309998725,[],410.9369353999937,414.573951399987,3,414.57401599999866,414.5740453999897,None,3,410.94225129998813,410.94225129998813,410.94225129998813,3.6225343000114663,None,,,,,,,,,,340,001,2026-04-02_13h31.21.215,exp_sofc,,2025.2.3,60.407411745226796,2026-04-02 13h31.21.983025 +0200,
,9,0,9,,,,,,,,,,,,,,,,,,,,,,None,None,,,,,,,,,,,,,9,0,9,0,414.7020107999997,,,,,,,,,,,,,,,,,,,,,,,,,,,,,,,,,,,,,,,,,,,,,,clips/clip_wurst_23_sub_2.mp4,audios/clip_wurst_23_sub_2.mp3,audiovisual,414.69633449999674,415.07426199999463,415.2747677999869,415.2747677999869,415.27439676666495,425.9983726999926,425.9983726999926,425.792890599987,"[4.20725730000413, 8.172514100006083]",425.884682399992,425.88472229999024,None,425.8847548999911,425.88477469999634,None,,,,,,,,,,,,,,,,340,001,2026-04-02_13h31.21.215,exp_sofc,,2025.2.3,60.407411745226796,2026-04-02 13h31.21.983025 +0200,
,10,0,10,,,,,,,,,,,,,,,,,,,,,,None,None,,,,,,,,,,,,,10,0,10,0,425.9983726999926,,,,,,,,,,,,,,,,,,,,,,,,,,,,,,,,,,,,,,,,,,,,,,clips/clip_hund_32_sub_1.mp4,audios/clip_hund_32_sub_1.mp3,audiovisual,425.9930047999951,426.38542359998974,426.58561689998896,426.58561689998896,426.58556686666657,436.61604569999326,436.82502399999066,436.61624079999456,"[5.703986699998495, 8.294187000006787]",436.708269499999,436.70831159999943,None,436.7083736999921,436.70843169999716,None,,,,,,,,,,,,,,,,340,001,2026-04-02_13h31.21.215,exp_sofc,,2025.2.3,60.407411745226796,2026-04-02 13h31.21.983025 +0200,
,11,0,11,,,,,,,,,,,,,,,,,,,,,,3,None,4.869310000009136,None,,,,,,,,,,,11,0,11,0,436.82502399999066,,,,,,,,,,,,,,,,,,,,,,,,,,,,,,,,,,,,,,,,,,,,,,clips/clip_weißt_13_sub_0.mp4,audios/silence.mp3,visual,436.8189982999902,437.2094187999901,437.41075559999445,437.41075559999445,437.4093614666674,438.6609286999883,448.36098359999596,448.24292999999307,[],448.3541184999922,453.23371549999865,3,453.2337775999913,453.23380709999765,None,3,448.36098359999596,448.36098359999596,448.36098359999596,4.869310000009136,None,,,,,,,,,,340,001,2026-04-02_13h31.21.215,exp_sofc,,2025.2.3,60.407411745226796,2026-04-02 13h31.21.983025 +0200,
,12,0,12,,,,,,,,,,,,,,,,,,,,,,None,None,,,,,,,,,,,,,12,0,12,0,453.36168849999376,,,,,,,,,,,,,,,,,,,,,,,,,,,,,,,,,,,,,,,,,,,,,,clips/clip_lied_06_sub_1.mp4,audios/silence.mp3,visual,453.3554898999864,453.7341199999937,453.9345825999917,453.9345825999917,453.9344917666642,455.18668539999635,466.73908119999396,466.55518919999304,[],466.63982489999034,466.63985899998806,None,466.6398898999905,466.63990559999365,None,,,,,,,,,,,,,,,,340,001,2026-04-02_13h31.21.215,exp_sofc,,2025.2.3,60.407411745226796,2026-04-02 13h31.21.983025 +0200,
,13,0,13,,,,,,,,,,,,,,,,,,,,,,None,None,,,,,,,,,,,,,13,0,13,0,466.73908119999396,,,,,,,,,,,,,,,,,,,,,,,,,,,,,,,,,,,,,,,,,,,,,,clips/clip_herz_13_nosub_0.mp4,audios/silence.mp3,visual,466.73329769998963,467.1553496999986,467.356220799993,467.33942189998925,467.3390750666624,468.5918762999936,478.72904419999395,478.53993999998784,[8.03317270000116],478.6316775999876,478.6317412999924,None,478.6317844999867,478.6318057999888,None,,,,,,,,,,,,,,,,340,001,2026-04-02_13h31.21.215,exp_sofc,,2025.2.3,60.407411745226796,2026-04-02 13h31.21.983025 +0200,
,14,0,14,,,,,,,,,,,,,,,,,,,,,,None,None,,,,,,,,,,,,,14,0,14,0,478.72904419999395,,,,,,,,,,,,,,,,,,,,,,,,,,,,,,,,,,,,,,,,,,,,,,clips/clip_dampf_05_nosub_2.mp4,audios/silence.mp3,visual,478.72345989999303,479.14525629999116,479.3459101999906,479.3459101999906,479.3455672666644,480.5807403999934,488.2463771999901,488.0443731999985,"[3.7564199000044027, 9.035030099999858]",488.12487749999855,488.12507899999036,None,488.12516359999427,488.1251854000002,None,,,,,,,,,,,,,,,,340,001,2026-04-02_13h31.21.215,exp_sofc,,2025.2.3,60.407411745226796,2026-04-02 13h31.21.983025 +0200,
,15,0,15,,,,,,,,,,,,,,,,,,,,,,None,None,,,,,,,,,,,,,15,0,15,0,488.2463771999901,,,,,,,,,,,,,,,,,,,,,,,,,,,,,,,,,,,,,,,,,,,,,,clips/clip_holo_22_sub_1.mp4,audios/clip_holo_22_sub_1.mp3,audiovisual,488.24189439999464,488.63533189999,488.8357866000006,488.8357866000006,488.83660036666356,,498.2518299999938,498.0413402999984,[9.663432799992734],498.1307417999924,498.1307794999884,None,498.13082019999274,498.1308633000008,None,,,,,,,,,,,,,,,,340,001,2026-04-02_13h31.21.215,exp_sofc,,2025.2.3,60.407411745226796,2026-04-02 13h31.21.983025 +0200,
,16,0,16,,,,,,,,,,,,,,,,,,,,,,None,None,,,,,,,,,,,,,16,0,16,0,498.2518299999938,,,,,,,,,,,,,,,,,,,,,,,,,,,,,,,,,,,,,,,,,,,,,,clips/clip_weißt_06_sub_0.mp4,audios/silence.mp3,visual,498.24602289999893,498.6340468999988,498.83531599999696,498.83531599999696,498.834406766666,500.0861731999903,509.37801529999706,509.16828579999856,[5.732533999995212],509.26224319999164,509.2623046999943,None,509.26234979998844,509.26237689999107,None,,,,,,,,,,,,,,,,340,001,2026-04-02_13h31.21.215,exp_sofc,,2025.2.3,60.407411745226796,2026-04-02 13h31.21.983025 +0200,
,17,0,17,,,,,,,,,,,,,,,,,,,,,,None,None,,,,,,,,,,,,,17,0,17,0,509.37801529999706,,,,,,,,,,,,,,,,,,,,,,,,,,,,,,,,,,,,,,,,,,,,,,clips/clip_dampf_02_sub_1.mp4,audios/clip_dampf_02_sub_1.mp3,audiovisual,509.37267639998754,509.76207479998993,509.9621535999904,509.9621535999904,509.9620764666654,519.4936397999991,519.4936397999991,519.2928828000004,[5.370858200010844],519.3857259999932,519.3857713999896,None,519.3858197999944,519.3858425999933,None,,,,,,,,,,,,,,,,340,001,2026-04-02_13h31.21.215,exp_sofc,,2025.2.3,60.407411745226796,2026-04-02 13h31.21.983025 +0200,
,18,0,18,,,,,,,,,,,,,,,,,,,,,,None,None,,,,,,,,,,,,,18,0,18,0,519.4936397999991,,,,,,,,,,,,,,,,,,,,,,,,,,,,,,,,,,,,,,,,,,,,,,clips/clip_claude_21_nosub_1.mp4,audios/silence.mp3,visual,519.4877997000003,519.8851855999965,520.0857421999972,520.0857421999972,520.0865043666602,521.3374354999978,532.5829677000002,532.3562357999908,[9.830433800001629],532.4638993999979,532.4639341999864,None,532.4639704999863,532.4639889999962,None,,,,,,,,,,,,,,,,340,001,2026-04-02_13h31.21.215,exp_sofc,,2025.2.3,60.407411745226796,2026-04-02 13h31.21.983025 +0200,
,19,0,19,,,,,,,,,,,,,,,,,,,,,,None,None,,,,,,,,,,,,,19,0,19,0,532.5829677000002,,,,,,,,,,,,,,,,,,,,,,,,,,,,,,,,,,,,,,,,,,,,,,clips/clip_hund_24_sub_1.mp4,audios/silence.mp3,visual,532.57726369999,532.9719728999917,533.1731662999955,533.1731662999955,533.1727725666608,534.4245472999901,545.4028021999984,545.1917757999909,[8.620095000005676],545.2940652999969,545.2941024999891,None,545.2941413999943,545.2941686999984,None,,,,,,,,,,,,,,,,340,001,2026-04-02_13h31.21.215,exp_sofc,,2025.2.3,60.407411745226796,2026-04-02 13h31.21.983025 +0200,
,20,0,20,,,,,,,,,,,,,,,,,,,,,,None,None,,,,,,,,,,,,,20,0,20,0,545.4028021999984,,,,,,,,,,,,,,,,,,,,,,,,,,,,,,,,,,,,,,,,,,,,,,clips/clip_herz_02_nosub_0.mp4,audios/silence.mp3,visual,545.3971346999897,545.8022041999939,546.0044306999916,546.0044306999916,546.0025678666609,547.2544766999927,558.6287362000003,558.4056554999988,[9.35527080000611],558.506991199989,558.5070416999952,None,558.5070884999877,558.5071137999912,None,,,,,,,,,,,,,,,,340,001,2026-04-02_13h31.21.215,exp_sofc,,2025.2.3,60.407411745226796,2026-04-02 13h31.21.983025 +0200,
,21,0,21,,,,,,,,,,,,,,,,,,,,,,None,None,,,,,,,,,,,,,21,0,21,0,558.6287362000003,,,,,,,,,,,,,,,,,,,,,,,,,,,,,,,,,,,,,,,,,,,,,,clips/clip_claude_02_sub_1.mp4,audios/clip_claude_02_sub_1.mp3,audiovisual,558.6245420999912,559.0063531999913,559.2066819999891,559.2066819999891,559.2065622666598,,569.2352748999983,569.0083064999926,[6.531986999994842],569.1056764999958,569.1057285999996,None,569.1057943999913,569.1058249999915,None,,,,,,,,,,,,,,,,340,001,2026-04-02_13h31.21.215,exp_sofc,,2025.2.3,60.407411745226796,2026-04-02 13h31.21.983025 +0200,
,22,0,22,,,,,,,,,,,,,,,,,,,,,,None,None,,,,,,,,,,,,,22,0,22,0,569.2352748999983,,,,,,,,,,,,,,,,,,,,,,,,,,,,,,,,,,,,,,,,,,,,,,clips/clip_weißt_17_nosub_0.mp4,audios/clip_weißt_17_nosub_0.mp3,audiovisual,569.2304660999944,569.6064621999976,569.8068606999877,569.8068606999877,569.8064156666553,581.5384613999922,581.5384613999922,581.3266165999958,[],581.4240505999915,581.424088499989,None,581.4241220999975,581.4241610999889,None,,,,,,,,,,,,,,,,340,001,2026-04-02_13h31.21.215,exp_sofc,,2025.2.3,60.407411745226796,2026-04-02 13h31.21.983025 +0200,
,23,0,23,,,,,,,,,,,,,,,,,,,,,,None,None,,,,,,,,,,,,,23,0,23,0,581.5384613999922,,,,,,,,,,,,,,,,,,,,,,,,,,,,,,,,,,,,,,,,,,,,,,clips/clip_wurst_34_nosub_2.mp4,audios/clip_wurst_34_nosub_2.mp3,audiovisual,581.5350120999938,581.9397602999961,582.1404668999894,582.1404668999894,582.1397672666537,590.6701571999874,590.8685005999869,590.6704247999878,"[4.662168100010604, 6.8133435000054305]",590.7659985999926,590.7660519999918,None,590.7661014999903,590.7661219999864,None,,,,,,,,,,,,,,,,340,001,2026-04-02_13h31.21.215,exp_sofc,,2025.2.3,60.407411745226796,2026-04-02 13h31.21.983025 +0200,
,24,0,24,,,,,,,,,,,,,,,,,,,,,,None,None,,,,,,,,,,,,,24,0,24,0,590.8685005999869,,,,,,,,,,,,,,,,,,,,,,,,,,,,,,,,,,,,,,,,,,,,,,clips/clip_hund_10_sub_0.mp4,audios/silence.mp3,visual,590.8630577999866,591.2798211999907,591.4815860999952,591.4815860999952,591.4795998666561,592.7321981999994,601.222074099991,601.0121049999871,[8.780882899998687],601.0991152999923,601.099180899997,None,601.0992549999937,601.0992938999989,None,,,,,,,,,,,,,,,,340,001,2026-04-02_13h31.21.215,exp_sofc,,2025.2.3,60.407411745226796,2026-04-02 13h31.21.983025 +0200,
,25,0,25,,,,,,,,,,,,,,,,,,,,,,None,None,,,,,,,,,,,,,25,0,25,0,601.222074099991,,,,,,,,,,,,,,,,,,,,,,,,,,,,,,,,,,,,,,,,,,,,,,clips/clip_holo_28_nosub_0.mp4,audios/clip_holo_28_nosub_0.mp3,audiovisual,601.2168358999916,601.604958099997,601.8057537999994,601.8057537999994,601.8053335666666,610.3357760999934,610.5522170999902,610.3360647999943,[],610.4192506999971,610.4193185999902,None,610.4193797999906,610.4194138999883,None,,,,,,,,,,,,,,,,340,001,2026-04-02_13h31.21.215,exp_sofc,,2025.2.3,60.407411745226796,2026-04-02 13h31.21.983025 +0200,
,26,0,26,,,,,,,,,,,,,,,,,,,,,,None,None,,,,,,,,,,,,,26,0,26,0,610.5522170999902,,,,,,,,,,,,,,,,,,,,,,,,,,,,,,,,,,,,,,,,,,,,,,clips/clip_holo_03_sub_1.mp4,audios/clip_holo_03_sub_1.mp3,audiovisual,610.5478411999939,610.9197739999945,611.1198372999934,611.1198372999934,611.1194718666559,620.6513651999994,620.8449988999928,620.6515740999894,[7.62053330001072],620.7330771999987,620.7331309000001,None,620.7332190999878,620.7332450999966,None,,,,,,,,,,,,,,,,340,001,2026-04-02_13h31.21.215,exp_sofc,,2025.2.3,60.407411745226796,2026-04-02 13h31.21.983025 +0200,
,27,0,27,,,,,,,,,,,,,,,,,,,,,,None,None,,,,,,,,,,,,,27,0,27,0,620.8449988999928,,,,,,,,,,,,,,,,,,,,,,,,,,,,,,,,,,,,,,,,,,,,,,clips/clip_claude_14_nosub_0.mp4,audios/silence.mp3,visual,620.8392882999906,621.243495799994,621.4457400999963,621.4457400999963,621.4437532666673,622.6956681999873,632.7475999999879,632.5445635999931,[8.988538899997366],632.640639099991,632.6406747000001,None,632.6407249999902,632.6407651999907,None,,,,,,,,,,,,,,,,340,001,2026-04-02_13h31.21.215,exp_sofc,,2025.2.3,60.407411745226796,2026-04-02 13h31.21.983025 +0200,
,28,0,28,,,,,,,,,,,,,,,,,,,,,,4,None,73.98722270000144,None,,,,,,,,,,,28,0,28,0,632.7475999999879,,,,,,,,,,,,,,,,,,,,,,,,,,,,,,,,,,,,,,,,,,,,,,clips/clip_lied_10_sub_1.mp4,audios/silence.mp3,visual,632.7418913000001,633.1539497999911,633.3548474999989,633.3548474999989,633.3550067666549,634.6071219000005,644.9861827999994,644.87220659999,[4.875218999994104],644.9807238999929,718.985236499997,4,718.9852975999966,718.9853170999995,None,4,644.9861827999994,644.9861827999994,644.9861827999994,73.98722270000144,None,,,,,,,,,,340,001,2026-04-02_13h31.21.215,exp_sofc,,2025.2.3,60.407411745226796,2026-04-02 13h31.21.983025 +0200,
,29,0,29,,,,,,,,,,,,,,,,,,,,,,None,None,,,,,,,,,,,,,29,0,29,0,719.1046865999961,,,,,,,,,,,,,,,,,,,,,,,,,,,,,,,,,,,,,,,,,,,,,,clips/clip_lied_07_nosub_1.mp4,audios/silence.mp3,visual,719.0983651999995,719.4866111999872,719.6863913999987,719.6863913999987,719.6866539666555,720.9397776999976,728.9473196999897,728.7178210999991,[4.679339800000889],728.8153807999915,728.8154160999984,None,728.8154467999993,728.8154625999887,None,,,,,,,,,,,,,,,,340,001,2026-04-02_13h31.21.215,exp_sofc,,2025.2.3,60.407411745226796,2026-04-02 13h31.21.983025 +0200,
,30,0,30,,,,,,,,,,,,,,,,,,,,,,None,None,,,,,,,,,,,,,30,0,30,0,728.9473196999897,,,,,,,,,,,,,,,,,,,,,,,,,,,,,,,,,,,,,,,,,,,,,,clips/clip_weißt_22_nosub_0.mp4,audios/clip_weißt_22_nosub_0.mp3,audiovisual,728.9419190999906,729.3176330999995,729.5198156999977,729.5198156999977,729.5183791666534,,740.8255208999908,740.6190493999893,[],740.7162703999929,740.7163490999956,None,740.7163975999865,740.7164186999871,None,,,,,,,,,,,,,,,,340,001,2026-04-02_13h31.21.215,exp_sofc,,2025.2.3,60.407411745226796,2026-04-02 13h31.21.983025 +0200,
,31,0,31,,,,,,,,,,,,,,,,,,,,,,None,None,,,,,,,,,,,,,31,0,31,0,740.8255208999908,,,,,,,,,,,,,,,,,,,,,,,,,,,,,,,,,,,,,,,,,,,,,,clips/clip_hund_29_nosub_0.mp4,audios/silence.mp3,visual,740.819849099993,741.227970699998,741.4301176000008,741.4301176000008,741.4299355666628,742.6803022999957,753.0588238999917,752.8465243999963,[],752.944268399995,752.9443704000005,None,752.9444301999902,752.9444520999969,None,,,,,,,,,,,,,,,,340,001,2026-04-02_13h31.21.215,exp_sofc,,2025.2.3,60.407411745226796,2026-04-02 13h31.21.983025 +0200,
,32,0,32,,,,,,,,,,,,,,,,,,,,,,None,None,,,,,,,,,,,,,32,0,32,0,753.0588238999917,,,,,,,,,,,,,,,,,,,,,,,,,,,,,,,,,,,,,,,,,,,,,,clips/clip_wurst_26_nosub_1.mp4,audios/clip_wurst_26_nosub_1.mp3,audiovisual,753.0536615999881,753.458647499996,753.65914779999,753.65914779999,753.6602754666567,765.8703872999904,765.8703872999904,765.6785089999903,[10.550172200004454],765.7656063999893,765.7656482999882,None,765.7657193999912,765.7657483999938,None,,,,,,,,,,,,,,,,340,001,2026-04-02_13h31.21.215,exp_sofc,,2025.2.3,60.407411745226796,2026-04-02 13h31.21.983025 +0200,
,33,0,33,,,,,,,,,,,,,,,,,,,,,,None,None,,,,,,,,,,,,,33,0,33,0,765.8703872999904,,,,,,,,,,,,,,,,,,,,,,,,,,,,,,,,,,,,,,,,,,,,,,clips/clip_holo_23_nosub_1.mp4,audios/silence.mp3,visual,765.8647930000006,766.2700184999994,766.4709116999875,766.4709116999875,766.4704214666601,767.7230300999945,776.7022225999972,776.503759299987,[],776.5941896999866,776.5942305999924,None,776.5942885999975,776.5943234000006,None,,,,,,,,,,,,,,,,340,001,2026-04-02_13h31.21.215,exp_sofc,,2025.2.3,60.407411745226796,2026-04-02 13h31.21.983025 +0200,
,34,0,34,,,,,,,,,,,,,,,,,,,,,,None,None,,,,,,,,,,,,,34,0,34,0,776.7022225999972,,,,,,,,,,,,,,,,,,,,,,,,,,,,,,,,,,,,,,,,,,,,,,clips/clip_wurst_04_sub_2.mp4,audios/silence.mp3,visual,776.696635299988,777.0960972999892,777.2960439999879,777.2960439999879,777.2960743666665,778.5490942999895,789.1222567999939,788.9147307999956,[7.3442993000062415],789.0043080999894,789.0043674999906,None,789.0044180999976,789.0044452999864,None,,,,,,,,,,,,,,,,340,001,2026-04-02_13h31.21.215,exp_sofc,,2025.2.3,60.407411745226796,2026-04-02 13h31.21.983025 +0200,
,35,0,35,,,,,,,,,,,,,,,,,,,,,,4,None,4.802442400003201,None,,,,,,,,,,,35,0,35,0,789.1222567999939,,,,,,,,,,,,,,,,,,,,,,,,,,,,,,,,,,,,,,,,,,,,,,clips/clip_wurst_01_sub_0.mp4,audios/clip_wurst_01_sub_0.mp3,audiovisual,789.1168327999912,789.5076335999911,789.7234001999896,789.706777799991,789.7063537666584,799.7436679999955,799.7436679999955,799.6388185999967,[],799.7371585999936,804.5548793999915,4,804.5549455,804.5549729999912,None,4,799.7436679999955,799.7436679999955,799.7436679999955,4.802442400003201,None,,,,,,,,,,340,001,2026-04-02_13h31.21.215,exp_sofc,,2025.2.3,60.407411745226796,2026-04-02 13h31.21.983025 +0200,
,36,0,36,,,,,,,,,,,,,,,,,,,,,,None,None,,,,,,,,,,,,,36,0,36,0,804.666524699991,,,,,,,,,,,,,,,,,,,,,,,,,,,,,,,,,,,,,,,,,,,,,,clips/clip_claude_12_sub_0.mp4,audios/silence.mp3,visual,804.6606172999891,805.0681036999886,805.2676183999865,805.2676183999865,805.2676202666664,806.5188549999875,814.7134187999909,814.4988285,[],814.6036757999973,814.6037173999939,None,814.6037544999999,814.6037724999915,None,,,,,,,,,,,,,,,,340,001,2026-04-02_13h31.21.215,exp_sofc,,2025.2.3,60.407411745226796,2026-04-02 13h31.21.983025 +0200,
,37,0,37,,,,,,,,,,,,,,,,,,,,,,None,None,,,,,,,,,,,,,37,0,37,0,814.7134187999909,,,,,,,,,,,,,,,,,,,,,,,,,,,,,,,,,,,,,,,,,,,,,,clips/clip_holo_04_sub_2.mp4,audios/silence.mp3,visual,814.7076715999865,815.1130756999919,815.3134434999956,815.3134434999956,815.313276066667,816.5660848999978,827.5555614999903,827.3324086999928,[3.4902180999924894],827.4352794999868,827.4353190999973,None,827.4353632999992,827.4353851999913,None,,,,,,,,,,,,,,,,340,001,2026-04-02_13h31.21.215,exp_sofc,,2025.2.3,60.407411745226796,2026-04-02 13h31.21.983025 +0200,
,38,0,38,,,,,,,,,,,,,,,,,,,,,,None,None,,,,,,,,,,,,,38,0,38,0,827.5555614999903,,,,,,,,,,,,,,,,,,,,,,,,,,,,,,,,,,,,,,,,,,,,,,clips/clip_dampf_06_nosub_2.mp4,audios/clip_dampf_06_nosub_2.mp3,audiovisual,827.5504083999986,827.9501337999973,828.1502431999979,828.1502431999979,828.150023866667,837.1637835000001,837.389872899992,837.163907899987,[],837.272419099987,837.2724888999946,None,837.2725266999914,837.2725441999937,None,,,,,,,,,,,,,,,,340,001,2026-04-02_13h31.21.215,exp_sofc,,2025.2.3,60.407411745226796,2026-04-02 13h31.21.983025 +0200,
,39,0,39,,,,,,,,,,,,,,,,,,,,,,4,None,3.6737438999989536,None,,,,,,,,,,,39,0,39,0,837.389872899992,,,,,,,,,,,,,,,,,,,,,,,,,,,,,,,,,,,,,,,,,,,,,,clips/clip_lied_02_sub_2.mp4,audios/clip_lied_02_sub_2.mp3,audiovisual,837.3843865999952,837.7829219999985,837.9828472999943,837.9828472999943,837.9826898666545,849.0164543999999,849.116956599988,849.0166212999902,"[4.307027399991057, 9.927827199993772]",849.111172799996,852.7969890999957,4,852.7970506999991,852.7970785999933,None,4,849.116956599988,849.116956599988,849.116956599988,3.6737438999989536,None,,,,,,,,,,340,001,2026-04-02_13h31.21.215,exp_sofc,,2025.2.3,60.407411745226796,2026-04-02 13h31.21.983025 +0200,
,40,0,40,,,,,,,,,,,,,,,,,,,,,,None,None,,,,,,,,,,,,,40,0,40,0,852.9210815999977,,,,,,,,,,,,,,,,,,,,,,,,,,,,,,,,,,,,,,,,,,,,,,clips/clip_weißt_14_nosub_2.mp4,audios/clip_weißt_14_nosub_2.mp3,audiovisual,852.9152351999946,853.2976710999937,853.4978283999953,853.4978283999953,853.4976197666585,862.4289929999941,862.6264353000006,862.4291646999918,[8.124560600001132],862.5182791999978,862.5183144999901,None,862.5183453999925,862.5183614999987,None,,,,,,,,,,,,,,,,340,001,2026-04-02_13h31.21.215,exp_sofc,,2025.2.3,60.407411745226796,2026-04-02 13h31.21.983025 +0200,
,41,0,41,,,,,,,,,,,,,,,,,,,,,,None,None,,,,,,,,,,,,,41,0,41,0,862.6264353000006,,,,,,,,,,,,,,,,,,,,,,,,,,,,,,,,,,,,,,,,,,,,,,clips/clip_wurst_13_sub_0.mp4,audios/silence.mp3,visual,862.620735199991,863.0211949999939,863.2214243999915,863.2214243999915,863.2212604666604,864.4733914999961,873.0478103999922,872.8538794999913,[],872.93536209999,872.9354393999965,None,872.9354946999956,872.9355138999963,None,,,,,,,,,,,,,,,,340,001,2026-04-02_13h31.21.215,exp_sofc,,2025.2.3,60.407411745226796,2026-04-02 13h31.21.983025 +0200,
,42,0,42,,,,,,,,,,,,,,,,,,,,,,2,None,6.101616100000683,None,,,,,,,,,,,42,0,42,0,873.0478103999922,,,,,,,,,,,,,,,,,,,,,,,,,,,,,,,,,,,,,,,,,,,,,,clips/clip_weißt_26_nosub_1.mp4,audios/silence.mp3,visual,873.0421594999934,873.4455558999907,873.6462532000005,873.6462532000005,873.6458436666619,874.8980475999997,883.9656371999881,883.8625504999945,[7.4876630999933695],883.9608169999992,890.0804104999988,2,890.0804654999956,890.0804854999878,None,2,883.9656371999881,883.9656371999881,883.9656371999881,6.101616100000683,None,,,,,,,,,,340,001,2026-04-02_13h31.21.215,exp_sofc,,2025.2.3,60.407411745226796,2026-04-02 13h31.21.983025 +0200,
,43,0,43,,,,,,,,,,,,,,,,,,,,,,None,None,,,,,,,,,,,,,43,0,43,0,890.2134202999878,,,,,,,,,,,,,,,,,,,,,,,,,,,,,,,,,,,,,,,,,,,,,,clips/clip_hund_17_nosub_1.mp4,audios/clip_hund_17_nosub_1.mp3,audiovisual,890.2072312999953,890.5806225999986,890.7809444999875,890.7809444999875,890.7809249666645,903.3223240999941,903.3223240999941,903.0903340999939,[10.82560480000393],903.1877447999868,903.1877773999877,None,903.1878079999879,903.1878258999932,None,,,,,,,,,,,,,,,,340,001,2026-04-02_13h31.21.215,exp_sofc,,2025.2.3,60.407411745226796,2026-04-02 13h31.21.983025 +0200,
,44,0,44,,,,,,,,,,,,,,,,,,,,,,3,None,3.1845214999921154,None,,,,,,,,,,,44,0,44,0,903.3223240999941,,,,,,,,,,,,,,,,,,,,,,,,,,,,,,,,,,,,,,,,,,,,,,clips/clip_lied_16_nosub_2.mp4,audios/clip_lied_16_nosub_2.mp3,audiovisual,903.3166226999892,903.6885004999931,903.8896137999982,903.8896137999982,903.8895087666644,914.5971056999988,914.5971056999988,914.492951399996,"[4.456650499996613, 7.218376500008162]",914.5917321999877,917.7860679000005,3,917.7861358999944,917.7861674999876,None,3,914.5971056999988,914.5971056999988,914.5971056999988,3.1845214999921154,None,,,,,,,,,,340,001,2026-04-02_13h31.21.215,exp_sofc,,2025.2.3,60.407411745226796,2026-04-02 13h31.21.983025 +0200,
,45,0,45,,,,,,,,,,,,,,,,,,,,,,None,None,,,,,,,,,,,,,45,0,45,0,917.9180952999886,,,,,,,,,,,,,,,,,,,,,,,,,,,,,,,,,,,,,,,,,,,,,,clips/clip_claude_07_nosub_0.mp4,audios/clip_claude_07_nosub_0.mp3,audiovisual,917.9119508000003,918.2880012999958,918.5046520999895,918.4876121999987,918.486782866665,928.5025029999961,928.7147919999989,928.5026307999942,[],928.5923184999992,928.5923497999902,None,928.5923770999943,928.5923922999937,None,,,,,,,,,,,,,,,,340,001,2026-04-02_13h31.21.215,exp_sofc,,2025.2.3,60.407411745226796,2026-04-02 13h31.21.983025 +0200,
,46,0,46,,,,,,,,,,,,,,,,,,,,,,None,None,,,,,,,,,,,,,46,0,46,0,928.7147919999989,,,,,,,,,,,,,,,,,,,,,,,,,,,,,,,,,,,,,,,,,,,,,,clips/clip_hund_18_nosub_1.mp4,audios/silence.mp3,visual,928.7091681999882,929.0986191999982,929.2993668999989,929.2993668999989,929.2979493666537,930.5510990999901,939.5295139999944,939.3306095000007,[7.650221000003512],939.4251947999874,939.4252363999985,None,939.4253198999941,939.4253562999947,None,,,,,,,,,,,,,,,,340,001,2026-04-02_13h31.21.215,exp_sofc,,2025.2.3,60.407411745226796,2026-04-02 13h31.21.983025 +0200,
,47,0,47,,,,,,,,,,,,,,,,,,,,,,None,None,,,,,,,,,,,,,47,0,47,0,939.5295139999944,,,,,,,,,,,,,,,,,,,,,,,,,,,,,,,,,,,,,,,,,,,,,,clips/clip_hund_08_sub_1.mp4,audios/silence.mp3,visual,939.5236416999978,939.9402005999873,940.1402503999998,940.1402503999998,940.1398886666614,941.3932340999891,950.3583213999955,950.1734234999894,[],950.2564951999957,950.256619199994,None,950.2566678000003,950.2566907,None,,,,,,,,,,,,,,,,340,001,2026-04-02_13h31.21.215,exp_sofc,,2025.2.3,60.407411745226796,2026-04-02 13h31.21.983025 +0200,
,48,0,48,,,,,,,,,,,,,,,,,,,,,,None,None,,,,,,,,,,,,,48,0,48,0,950.3583213999955,,,,,,,,,,,,,,,,,,,,,,,,,,,,,,,,,,,,,,,,,,,,,,clips/clip_hund_15_sub_1.mp4,audios/silence.mp3,visual,950.3525108999893,950.7583824999892,950.958326299995,950.958326299995,950.958405566653,952.1933063999895,961.6448486000008,961.4252826999873,[4.794303100003162],961.5163890999975,961.5164230999944,None,961.5164867999993,961.5165231999999,None,,,,,,,,,,,,,,,,340,001,2026-04-02_13h31.21.215,exp_sofc,,2025.2.3,60.407411745226796,2026-04-02 13h31.21.983025 +0200,
,49,0,49,,,,,,,,,,,,,,,,,,,,,,None,None,,,,,,,,,,,,,49,0,49,0,961.6448486000008,,,,,,,,,,,,,,,,,,,,,,,,,,,,,,,,,,,,,,,,,,,,,,clips/clip_hund_19_nosub_0.mp4,audios/clip_hund_19_nosub_0.mp3,audiovisual,961.6397815999953,962.026408699996,962.2262518999923,962.2262518999923,962.2262498666571,973.8095240999974,973.8095240999974,973.5939993999928,[],973.6917478999967,973.6918011999951,None,973.6918665999983,973.6918958999886,None,,,,,,,,,,,,,,,,340,001,2026-04-02_13h31.21.215,exp_sofc,,2025.2.3,60.407411745226796,2026-04-02 13h31.21.983025 +0200,
,50,0,50,,,,,,,,,,,,,,,,,,,,,,None,None,,,,,,,,,,,,,50,0,50,0,973.8095240999974,,,,,,,,,,,,,,,,,,,,,,,,,,,,,,,,,,,,,,,,,,,,,,clips/clip_claude_11_nosub_0.mp4,audios/clip_claude_11_nosub_0.mp3,audiovisual,973.8040061999927,974.1925763999898,974.3930179999879,974.3930179999879,974.3930136666643,984.4082546999998,984.62791499999,984.4084803999867,[],984.5053995999915,984.5054350999999,None,984.5054833999893,984.5055262999958,None,,,,,,,,,,,,,,,,340,001,2026-04-02_13h31.21.215,exp_sofc,,2025.2.3,60.407411745226796,2026-04-02 13h31.21.983025 +0200,
,51,0,51,,,,,,,,,,,,,,,,,,,,,,1,None,4.660131600001478,None,,,,,,,,,,,51,0,51,0,984.62791499999,,,,,,,,,,,,,,,,,,,,,,,,,,,,,,,,,,,,,,,,,,,,,,clips/clip_herz_10_sub_0.mp4,audios/clip_herz_10_sub_0.mp3,audiovisual,984.6227745999931,985.0097031999903,985.2098373999906,985.2098373999906,985.2097892666536,995.2421608000004,995.3524767999916,995.2423393999925,[],995.3473590999929,1000.0274019999924,1,1000.0274497999926,1000.0274693999963,None,1,995.3524767999916,995.3524767999916,995.3524767999916,4.660131600001478,None,,,,,,,,,,340,001,2026-04-02_13h31.21.215,exp_sofc,,2025.2.3,60.407411745226796,2026-04-02 13h31.21.983025 +0200,
,52,0,52,,,,,,,,,,,,,,,,,,,,,,1,None,2.3938392999989446,None,,,,,,,,,,,52,0,52,0,1000.13738439999,,,,,,,,,,,,,,,,,,,,,,,,,,,,,,,,,,,,,,,,,,,,,,clips/clip_claude_26_nosub_0.mp4,audios/silence.mp3,visual,1000.1310415999906,1000.5370721999934,1000.7385217999981,1000.7385217999981,1000.7386570666606,1001.9897643000004,1011.7813350999932,1011.6712693999871,[4.890859499995713],1011.7754914999969,1014.1858076999924,1,1014.1858727999934,1014.1858986999869,None,1,1011.7813350999932,1011.7813350999932,1011.7813350999932,2.3938392999989446,None,,,,,,,,,,340,001,2026-04-02_13h31.21.215,exp_sofc,,2025.2.3,60.407411745226796,2026-04-02 13h31.21.983025 +0200,
,53,0,53,,,,,,,,,,,,,,,,,,,,,,None,None,,,,,,,,,,,,,53,0,53,0,1014.3012342999864,,,,,,,,,,,,,,,,,,,,,,,,,,,,,,,,,,,,,,,,,,,,,,clips/clip_wurst_18_nosub_0.mp4,audios/silence.mp3,visual,1014.2951541999937,1014.7010340999987,1014.9016889999912,1014.9016889999912,1014.9011218666603,1016.1547332999908,1025.1522617999872,1024.933629799998,[],1025.0470953999902,1025.0471281999926,None,1025.0471575999982,1025.0471779999934,None,,,,,,,,,,,,,,,,340,001,2026-04-02_13h31.21.215,exp_sofc,,2025.2.3,60.407411745226796,2026-04-02 13h31.21.983025 +0200,
,54,0,54,,,,,,,,,,,,,,,,,,,,,,None,None,,,,,,,,,,,,,54,0,54,0,1025.1522617999872,,,,,,,,,,,,,,,,,,,,,,,,,,,,,,,,,,,,,,,,,,,,,,clips/clip_wurst_14_sub_1.mp4,audios/silence.mp3,visual,1025.146686299995,1025.551674599992,1025.7516100999928,1025.7516100999928,1025.7515018666638,1027.004563999988,1035.9620339999965,1035.784503899995,[7.836554299996351],1035.8593383999978,1035.8594197999919,None,1035.859464299996,1035.8594908999949,None,,,,,,,,,,,,,,,,340,001,2026-04-02_13h31.21.215,exp_sofc,,2025.2.3,60.407411745226796,2026-04-02 13h31.21.983025 +0200,
,55,0,55,,,,,,,,,,,,,,,,,,,,,,None,None,,,,,,,,,,,,,55,0,55,0,1035.9620339999965,,,,,,,,,,,,,,,,,,,,,,,,,,,,,,,,,,,,,,,,,,,,,,clips/clip_holo_27_nosub_1.mp4,audios/silence.mp3,visual,1035.95654259999,1036.3680228999874,1036.5687409999955,1036.5687409999955,1036.568340166665,1037.8210594999982,1046.783556999988,1046.5672223999863,[5.911457599999267],1046.6648616999883,1046.6649182999972,None,1046.6649553999887,1046.664972899991,None,,,,,,,,,,,,,,,,340,001,2026-04-02_13h31.21.215,exp_sofc,,2025.2.3,60.407411745226796,2026-04-02 13h31.21.983025 +0200,
,56,0,56,,,,,,,,,,,,,,,,,,,,,,None,None,,,,,,,,,,,,,56,0,56,0,1046.783556999988,,,,,,,,,,,,,,,,,,,,,,,,,,,,,,,,,,,,,,,,,,,,,,clips/clip_herz_17_sub_0.mp4,audios/clip_herz_17_sub_0.mp3,audiovisual,1046.7784160999872,1047.166477699997,1047.3673905999894,1047.3673905999894,1047.366912666654,,1055.788465199992,1055.5674528999953,[6.0087189999903785],1055.6627777999965,1055.6628248999914,None,1055.6628679999994,1055.6628950999875,None,,,,,,,,,,,,,,,,340,001,2026-04-02_13h31.21.215,exp_sofc,,2025.2.3,60.407411745226796,2026-04-02 13h31.21.983025 +0200,
,57,0,57,,,,,,,,,,,,,,,,,,,,,,None,None,,,,,,,,,,,,,57,0,57,0,1055.788465199992,,,,,,,,,,,,,,,,,,,,,,,,,,,,,,,,,,,,,,,,,,,,,,clips/clip_wurst_25_sub_1.mp4,audios/clip_wurst_25_sub_1.mp3,audiovisual,1055.7844811999967,1056.1637600999966,1056.3661747999868,1056.3661747999868,1056.3644897666566,1067.7888045,1067.7888045,1067.5816942999954,[],1067.6742070999899,1067.6742505000002,None,1067.674342399987,1067.674379499993,None,,,,,,,,,,,,,,,,340,001,2026-04-02_13h31.21.215,exp_sofc,,2025.2.3,60.407411745226796,2026-04-02 13h31.21.983025 +0200,
,58,0,58,,,,,,,,,,,,,,,,,,,,,,None,None,,,,,,,,,,,,,58,0,58,0,1067.7888045,,,,,,,,,,,,,,,,,,,,,,,,,,,,,,,,,,,,,,,,,,,,,,clips/clip_hund_14_nosub_2.mp4,audios/silence.mp3,visual,1067.7829044999962,1068.174169299993,1068.3748798999877,1068.3748798999877,1068.3749373666544,1069.6270275999996,1078.510884599993,1078.274330699991,[6.078699099991354],1078.373491499995,1078.3735436999996,None,1078.3736123999988,1078.3736493999895,None,,,,,,,,,,,,,,,,340,001,2026-04-02_13h31.21.215,exp_sofc,,2025.2.3,60.407411745226796,2026-04-02 13h31.21.983025 +0200,
,59,0,59,,,,,,,,,,,,,,,,,,,,,,2,space,3.3698607999976957,None,100.25190030000522,None,,,,,,,,,59,0,59,0,1078.510884599993,,,,,,,,,,,,,,,,,,,,,,,,,,,,,,,,,,,,,,,,,,,,,,clips/clip_claude_24_sub_1.mp4,audios/clip_claude_24_sub_1.mp3,audiovisual,1078.5057890999888,1078.8771347999864,1079.0783758999896,1079.0783758999896,1079.0777519666628,,1085.3910427999945,1085.2800624999945,[6.487055699995835],1085.3842651999876,1088.7768145999871,2,1088.7768797999888,1189.0488900999917,space,1,1085.3910427999945,1085.3910427999945,1085.3910427999945,3.3698607999976957,None,1088.792470299988,1088.792470299988,1088.792470299988,100.25190030000522,None,,,,,340,001,2026-04-02_13h31.21.215,exp_sofc,,2025.2.3,60.407411745226796,2026-04-02 13h31.21.983025 +0200,
,60,0,60,,,,,,,,,,,,,,,,,,,,,,None,None,,,,,,,,,,,,,60,0,60,0,1189.1645834999945,,,,,,,,,,,,,,,,,,,,,,,,,,,,,,,,,,,,,,,,,,,,,,clips/clip_wurst_29_sub_1.mp4,audios/silence.mp3,visual,1189.1581869999936,1189.564114599998,1189.7645780999883,1189.7479655999923,1189.7479667666669,1190.9999436999933,1201.9792052999983,1201.7671278999915,[],1201.8598500999942,1201.8598884999956,None,1201.8599389999872,1201.8599662999914,None,,,,,,,,,,,,,,,,340,001,2026-04-02_13h31.21.215,exp_sofc,,2025.2.3,60.407411745226796,2026-04-02 13h31.21.983025 +0200,
,61,0,61,,,,,,,,,,,,,,,,,,,,,,3,None,7.359350899991114,None,,,,,,,,,,,61,0,61,0,1201.9792052999983,,,,,,,,,,,,,,,,,,,,,,,,,,,,,,,,,,,,,,,,,,,,,,clips/clip_lied_21_nosub_2.mp4,audios/clip_lied_21_nosub_2.mp3,audiovisual,1201.9748099999997,1202.3628181999957,1202.5634748999873,1202.5634748999873,1202.5630472666564,1214.0809331999917,1214.1885652999918,1214.081105099991,"[5.62365470000077, 11.563919199994416]",1214.1819667999953,1221.5510559999966,3,1221.551109299995,1221.5511321999948,None,3,1214.1885652999918,1214.1885652999918,1214.1885652999918,7.359350899991114,None,,,,,,,,,,340,001,2026-04-02_13h31.21.215,exp_sofc,,2025.2.3,60.407411745226796,2026-04-02 13h31.21.983025 +0200,
,62,0,62,,,,,,,,,,,,,,,,,,,,,,None,None,,,,,,,,,,,,,62,0,62,0,1221.6815604000003,,,,,,,,,,,,,,,,,,,,,,,,,,,,,,,,,,,,,,,,,,,,,,clips/clip_wurst_36_sub_0.mp4,audios/clip_wurst_36_sub_0.mp3,audiovisual,1221.6773302999936,1222.051561299988,1222.2521227999969,1222.2521227999969,1222.2521728666654,1232.3207464000006,1232.3207464000006,1232.1177129999996,[],1232.2189451999875,1232.2189788999967,None,1232.219008199987,1232.219024399994,None,,,,,,,,,,,,,,,,340,001,2026-04-02_13h31.21.215,exp_sofc,,2025.2.3,60.407411745226796,2026-04-02 13h31.21.983025 +0200,
,63,0,63,,,,,,,,,,,,,,,,,,,,,,4,None,7.891396300008637,None,,,,,,,,,,,63,0,63,0,1232.3207464000006,,,,,,,,,,,,,,,,,,,,,,,,,,,,,,,,,,,,,,,,,,,,,,clips/clip_wurst_07_sub_0.mp4,audios/silence.mp3,visual,1232.3151415999891,1232.7267074999982,1232.9270345999976,1232.9270345999976,1232.927003466659,1234.1791938999959,1243.0574223999865,1242.9594698,[],1243.0506989999994,1250.9641499999998,4,1250.9641972999962,1250.9642170999869,None,4,1243.0574223999865,1243.0574223999865,1243.0574223999865,7.891396300008637,None,,,,,,,,,,340,001,2026-04-02_13h31.21.215,exp_sofc,,2025.2.3,60.407411745226796,2026-04-02 13h31.21.983025 +0200,
,64,0,64,,,,,,,,,,,,,,,,,,,,,,None,None,,,,,,,,,,,,,64,0,64,0,1251.0920692999935,,,,,,,,,,,,,,,,,,,,,,,,,,,,,,,,,,,,,,,,,,,,,,clips/clip_holo_16_sub_1.mp4,audios/clip_holo_16_sub_1.mp3,audiovisual,1251.0857494999946,1251.4644633999997,1251.6646332999953,1251.6646332999953,1251.6643753666615,1263.891233199989,1263.891233199989,1263.6842250999907,[10.743248700004187],1263.7850168999867,1263.785049099999,None,1263.78507849999,1263.7850951,None,,,,,,,,,,,,,,,,340,001,2026-04-02_13h31.21.215,exp_sofc,,2025.2.3,60.407411745226796,2026-04-02 13h31.21.983025 +0200,
,65,0,65,,,,,,,,,,,,,,,,,,,,,,None,None,,,,,,,,,,,,,65,0,65,0,1263.891233199989,,,,,,,,,,,,,,,,,,,,,,,,,,,,,,,,,,,,,,,,,,,,,,clips/clip_lied_22_nosub_1.mp4,audios/silence.mp3,visual,1263.885625099996,1264.2923352999933,1264.4927069999976,1264.4927069999976,1264.4925651666601,1265.7448019999865,1275.2125996999966,1275.00965729999,[6.828367800000706],1275.0972103999957,1275.0972792999964,None,1275.0973953999928,1275.0974168999965,None,,,,,,,,,,,,,,,,340,001,2026-04-02_13h31.21.215,exp_sofc,,2025.2.3,60.407411745226796,2026-04-02 13h31.21.983025 +0200,
,66,0,66,,,,,,,,,,,,,,,,,,,,,,None,None,,,,,,,,,,,,,66,0,66,0,1275.2125996999966,,,,,,,,,,,,,,,,,,,,,,,,,,,,,,,,,,,,,,,,,,,,,,clips/clip_hund_12_sub_1.mp4,audios/clip_hund_12_sub_1.mp3,audiovisual,1275.2081669999898,1275.6015787999931,1275.8027177999902,1275.8027177999902,1275.8028507666643,1287.0194438999897,1287.2550689999916,1287.0196647999983,[10.51780630000576],1287.1087039999984,1287.1087531999947,None,1287.1088066999946,1287.1088299999974,None,,,,,,,,,,,,,,,,340,001,2026-04-02_13h31.21.215,exp_sofc,,2025.2.3,60.407411745226796,2026-04-02 13h31.21.983025 +0200,
,67,0,67,,,,,,,,,,,,,,,,,,,,,,None,None,,,,,,,,,,,,,67,0,67,0,1287.2550689999916,,,,,,,,,,,,,,,,,,,,,,,,,,,,,,,,,,,,,,,,,,,,,,clips/clip_lied_04_nosub_0.mp4,audios/clip_lied_04_nosub_0.mp3,audiovisual,1287.2509842,1287.6226727999892,1287.823690499994,1287.823690499994,1287.8229836666617,,1299.0074351999938,1298.8078263999923,[],1298.8993088999996,1298.8993530000007,None,1298.8994396999915,1298.8994833999895,None,,,,,,,,,,,,,,,,340,001,2026-04-02_13h31.21.215,exp_sofc,,2025.2.3,60.407411745226796,2026-04-02 13h31.21.983025 +0200,
,68,0,68,,,,,,,,,,,,,,,,,,,,,,None,None,,,,,,,,,,,,,68,0,68,0,1299.0074351999938,,,,,,,,,,,,,,,,,,,,,,,,,,,,,,,,,,,,,,,,,,,,,,clips/clip_herz_01_sub_1.mp4,audios/silence.mp3,visual,1299.0016344999894,1299.40055939999,1299.5999048999947,1299.5999048999947,1299.599604666659,1300.8527386999922,1310.4050221999933,1310.2000184999924,[6.750237600004766],1310.2850151999883,1310.2850758999994,None,1310.2851241999888,1310.2851415999903,None,,,,,,,,,,,,,,,,340,001,2026-04-02_13h31.21.215,exp_sofc,,2025.2.3,60.407411745226796,2026-04-02 13h31.21.983025 +0200,
,69,0,69,,,,,,,,,,,,,,,,,,,,,,None,None,,,,,,,,,,,,,69,0,69,0,1310.4050221999933,,,,,,,,,,,,,,,,,,,,,,,,,,,,,,,,,,,,,,,,,,,,,,clips/clip_wurst_22_nosub_0.mp4,audios/clip_wurst_22_nosub_0.mp3,audiovisual,1310.3998282999964,1310.7922346999985,1310.9926377999946,1310.9926377999946,1310.9925313666647,1322.8965259999968,1322.8965259999968,1322.6971606000006,[],1322.7804735999962,1322.7805626999907,None,1322.780611899987,1322.7806370999897,None,,,,,,,,,,,,,,,,340,001,2026-04-02_13h31.21.215,exp_sofc,,2025.2.3,60.407411745226796,2026-04-02 13h31.21.983025 +0200,
,70,0,70,,,,,,,,,,,,,,,,,,,,,,None,None,,,,,,,,,,,,,70,0,70,0,1322.8965259999968,,,,,,,,,,,,,,,,,,,,,,,,,,,,,,,,,,,,,,,,,,,,,,clips/clip_claude_04_nosub_2.mp4,audios/clip_claude_04_nosub_2.mp3,audiovisual,1322.8914259999874,1323.2865643999976,1323.4887936999876,1323.4887936999876,1323.487427766657,1332.5181804999884,1332.6983929999988,1332.5184749999898,[9.139946100011002],1332.608713499998,1332.6087943999883,None,1332.6088465999928,1332.6088689999888,None,,,,,,,,,,,,,,,,340,001,2026-04-02_13h31.21.215,exp_sofc,,2025.2.3,60.407411745226796,2026-04-02 13h31.21.983025 +0200,
,71,0,71,,,,,,,,,,,,,,,,,,,,,,None,None,,,,,,,,,,,,,71,0,71,0,1332.6983929999988,,,,,,,,,,,,,,,,,,,,,,,,,,,,,,,,,,,,,,,,,,,,,,clips/clip_claude_08_nosub_0.mp4,audios/silence.mp3,visual,1332.6926112999936,1333.1185699999915,1333.321510499998,1333.321510499998,1333.3187895666672,1334.5707894999941,1343.1771114999865,1342.9505121999973,[],1343.0438282999967,1343.0438823999866,None,1343.0439326999913,1343.0439610999892,None,,,,,,,,,,,,,,,,340,001,2026-04-02_13h31.21.215,exp_sofc,,2025.2.3,60.407411745226796,2026-04-02 13h31.21.983025 +0200,
,72,0,72,,,,,,,,,,,,,,,,,,,,,,None,None,,,,,,,,,,,,,72,0,72,0,1343.1771114999865,,,,,,,,,,,,,,,,,,,,,,,,,,,,,,,,,,,,,,,,,,,,,,clips/clip_hund_30_sub_0.mp4,audios/clip_hund_30_sub_0.mp3,audiovisual,1343.1728434999968,1343.5518618999922,1343.7522578999924,1343.7522578999924,1343.752273166658,1355.991480599987,1355.991480599987,1355.7708581999905,[],1355.8615304999985,1355.8615740999958,None,1355.861611299988,1355.8616354999976,None,,,,,,,,,,,,,,,,340,001,2026-04-02_13h31.21.215,exp_sofc,,2025.2.3,60.407411745226796,2026-04-02 13h31.21.983025 +0200,
,73,0,73,,,,,,,,,,,,,,,,,,,,,,None,None,,,,,,,,,,,,,73,0,73,0,1355.991480599987,,,,,,,,,,,,,,,,,,,,,,,,,,,,,,,,,,,,,,,,,,,,,,clips/clip_holo_14_sub_0.mp4,audios/clip_holo_14_sub_0.mp3,audiovisual,1355.9875064999942,1356.3712773000007,1356.5719294999872,1356.5719294999872,1356.5717142666583,1366.6047672999994,1366.8453077999875,1366.6049948,[],1366.7198490999872,1366.7199139999866,None,1366.7200277999946,1366.7200981999922,None,,,,,,,,,,,,,,,,340,001,2026-04-02_13h31.21.215,exp_sofc,,2025.2.3,60.407411745226796,2026-04-02 13h31.21.983025 +0200,
,74,0,74,,,,,,,,,,,,,,,,,,,,,,None,None,,,,,,,,,,,,,74,0,74,0,1366.8453077999875,,,,,,,,,,,,,,,,,,,,,,,,,,,,,,,,,,,,,,,,,,,,,,clips/clip_hund_03_sub_1.mp4,audios/clip_hund_03_sub_1.mp3,audiovisual,1366.840007699997,1367.2281460999948,1367.4298456999968,1367.4298456999968,1367.4289889666582,,1379.5448438999883,1379.3265534999955,[7.223455600003945],1379.4177414000005,1379.417812899992,None,1379.4178537999978,1379.4178736999893,None,,,,,,,,,,,,,,,,340,001,2026-04-02_13h31.21.215,exp_sofc,,2025.2.3,60.407411745226796,2026-04-02 13h31.21.983025 +0200,
,75,0,75,,,,,,,,,,,,,,,,,,,,,,None,None,,,,,,,,,,,,,75,0,75,0,1379.5448438999883,,,,,,,,,,,,,,,,,,,,,,,,,,,,,,,,,,,,,,,,,,,,,,clips/clip_holo_18_sub_0.mp4,audios/clip_holo_18_sub_0.mp3,audiovisual,1379.539569399989,1379.931502099993,1380.1322731999971,1380.1322731999971,1380.131758866661,1392.2289300999983,1392.2289300999983,1391.9836773999996,[6.961597100002109],1392.0886291999923,1392.0886819000007,None,1392.0887517999945,1392.0887954999926,None,,,,,,,,,,,,,,,,340,001,2026-04-02_13h31.21.215,exp_sofc,,2025.2.3,60.407411745226796,2026-04-02 13h31.21.983025 +0200,
,76,0,76,,,,,,,,,,,,,,,,,,,,,,None,None,,,,,,,,,,,,,76,0,76,0,1392.2289300999983,,,,,,,,,,,,,,,,,,,,,,,,,,,,,,,,,,,,,,,,,,,,,,clips/clip_hund_13_nosub_1.mp4,audios/clip_hund_13_nosub_1.mp3,audiovisual,1392.2234110999998,1392.5933151999925,1392.7948797999998,1392.7948797999998,1392.7931956666619,1404.5619191000005,1404.7714915999968,1404.562120699993,[6.429062000010163],1404.6611102999886,1404.6611483999877,None,1404.6611885999882,1404.6612056999875,None,,,,,,,,,,,,,,,,340,001,2026-04-02_13h31.21.215,exp_sofc,,2025.2.3,60.407411745226796,2026-04-02 13h31.21.983025 +0200,
,77,0,77,,,,,,,,,,,,,,,,,,,,,,None,None,,,,,,,,,,,,,77,0,77,0,1404.7714915999968,,,,,,,,,,,,,,,,,,,,,,,,,,,,,,,,,,,,,,,,,,,,,,clips/clip_claude_06_sub_1.mp4,audios/silence.mp3,visual,1404.765758499998,1405.1711179999984,1405.372160999992,1405.372160999992,1405.371798466662,1406.6235066999943,1418.1591317999992,1417.9265553999867,[4.255124799994519],1418.0272358999937,1418.0272903999867,None,1418.027339799999,1418.0273655999918,None,,,,,,,,,,,,,,,,340,001,2026-04-02_13h31.21.215,exp_sofc,,2025.2.3,60.407411745226796,2026-04-02 13h31.21.983025 +0200,
,78,0,78,,,,,,,,,,,,,,,,,,,,,,1,None,5.308651800005464,None,,,,,,,,,,,78,0,78,0,1418.1591317999992,,,,,,,,,,,,,,,,,,,,,,,,,,,,,,,,,,,,,,,,,,,,,,clips/clip_dampf_04_nosub_1.mp4,audios/clip_dampf_04_nosub_1.mp3,audiovisual,1418.1536158999952,1418.5272472999932,1418.7441569999937,1418.7441569999937,1418.742479666664,1428.3574458999938,1428.4624640999973,1428.3576524999953,[5.413207400008105],1428.4571021999873,1433.7749889999977,1,1433.7750510999904,1433.7750779999915,None,1,1428.4624640999973,1428.4624640999973,1428.4624640999973,5.308651800005464,None,,,,,,,,,,340,001,2026-04-02_13h31.21.215,exp_sofc,,2025.2.3,60.407411745226796,2026-04-02 13h31.21.983025 +0200,
,79,0,79,,,,,,,,,,,,,,,,,,,,,,2,None,3.907662799989339,None,,,,,,,,,,,79,0,79,0,1433.8872733999888,,,,,,,,,,,,,,,,,,,,,,,,,,,,,,,,,,,,,,,,,,,,,,clips/clip_herz_05_nosub_0.mp4,audios/silence.mp3,visual,1433.8810243999906,1434.2866798999894,1434.4876151999924,1434.4876151999924,1434.4873642666537,1435.7404338999913,1444.9005837000004,1444.7871654999908,"[6.551106599988998, 8.029051899997285]",1444.8950525999971,1448.824033699988,2,1448.8240911999892,1448.8241141999897,None,2,1444.9005837000004,1444.9005837000004,1444.9005837000004,3.907662799989339,None,,,,,,,,,,340,001,2026-04-02_13h31.21.215,exp_sofc,,2025.2.3,60.407411745226796,2026-04-02 13h31.21.983025 +0200,
,80,0,80,,,,,,,,,,,,,,,,,,,,,,2,None,3.4167236000066623,None,,,,,,,,,,,80,0,80,0,1448.954398499991,,,,,,,,,,,,,,,,,,,,,,,,,,,,,,,,,,,,,,,,,,,,,,clips/clip_lied_09_sub_1.mp4,audios/clip_lied_09_sub_1.mp3,audiovisual,1448.949765799989,1449.3244851999916,1449.5249707999901,1449.5249707999901,1449.52473436666,1459.9581330999936,1460.0598723000003,1459.9582688999944,[],1460.0533237999916,1463.4883864000003,2,1463.4884352999943,1463.4884557999903,None,2,1460.0598723000003,1460.0598723000003,1460.0598723000003,3.4167236000066623,None,,,,,,,,,,340,001,2026-04-02_13h31.21.215,exp_sofc,,2025.2.3,60.407411745226796,2026-04-02 13h31.21.983025 +0200,
,81,0,81,,,,,,,,,,,,,,,,,,,,,,None,None,,,,,,,,,,,,,81,0,81,0,1463.5847156999953,,,,,,,,,,,,,,,,,,,,,,,,,,,,,,,,,,,,,,,,,,,,,,clips/clip_herz_12_nosub_0.mp4,audios/silence.mp3,visual,1463.5786621999869,1463.9972481000004,1464.19758919999,1464.19758919999,1464.1974085666627,1465.4497178999882,1473.4916437999927,1473.2961164000008,[5.920427599994582],1473.3876350999926,1473.3876691999903,None,1473.3876981999929,1473.3877150999906,None,,,,,,,,,,,,,,,,340,001,2026-04-02_13h31.21.215,exp_sofc,,2025.2.3,60.407411745226796,2026-04-02 13h31.21.983025 +0200,
,82,0,82,,,,,,,,,,,,,,,,,,,,,,None,None,,,,,,,,,,,,,82,0,82,0,1473.4916437999927,,,,,,,,,,,,,,,,,,,,,,,,,,,,,,,,,,,,,,,,,,,,,,clips/clip_weißt_29_sub_1.mp4,audios/silence.mp3,visual,1473.4860895999882,1473.8879758999974,1474.0884979999973,1474.0884979999973,1474.0880048666625,1475.3399681999872,1485.866292199993,1485.6728556999878,[7.366595999992569],1485.767043499989,1485.7670769999968,None,1485.7671536999987,1485.7671899999987,None,,,,,,,,,,,,,,,,340,001,2026-04-02_13h31.21.215,exp_sofc,,2025.2.3,60.407411745226796,2026-04-02 13h31.21.983025 +0200,
,83,0,83,,,,,,,,,,,,,,,,,,,,,,3,None,8.231231800004025,None,,,,,,,,,,,83,0,83,0,1485.866292199993,,,,,,,,,,,,,,,,,,,,,,,,,,,,,,,,,,,,,,,,,,,,,,clips/clip_dampf_03_sub_1.mp4,audios/silence.mp3,visual,1485.8605528999906,1486.282214699997,1486.4823521999933,1486.4823521999933,1486.4826581666605,1487.7341870999953,1494.2252219999937,1494.1121553999983,[7.821869599996717],1494.221209899988,1502.4734284999868,3,1502.4734939999908,1502.4735228999925,None,3,1494.2252219999937,1494.2252219999937,1494.2252219999937,8.231231800004025,None,,,,,,,,,,340,001,2026-04-02_13h31.21.215,exp_sofc,,2025.2.3,60.407411745226796,2026-04-02 13h31.21.983025 +0200,
,84,0,84,,,,,,,,,,,,,,,,,,,,,,None,None,,,,,,,,,,,,,84,0,84,0,1502.5778546999936,,,,,,,,,,,,,,,,,,,,,,,,,,,,,,,,,,,,,,,,,,,,,,clips/clip_weißt_19_sub_1.mp4,audios/silence.mp3,visual,1502.5722172999958,1502.9809172999958,1503.1817041999893,1503.1817041999893,1503.1818399666556,1504.4335040000005,1513.3952932999964,1513.213765499997,[],1513.3041777999897,1513.3042144999927,None,1513.3042480999866,1513.304264499995,None,,,,,,,,,,,,,,,,340,001,2026-04-02_13h31.21.215,exp_sofc,,2025.2.3,60.407411745226796,2026-04-02 13h31.21.983025 +0200,
,85,0,85,,,,,,,,,,,,,,,,,,,,,,2,None,7.401961700001266,None,,,,,,,,,,,85,0,85,0,1513.3952932999964,,,,,,,,,,,,,,,,,,,,,,,,,,,,,,,,,,,,,,,,,,,,,,clips/clip_weißt_28_nosub_1.mp4,audios/silence.mp3,visual,1513.3897862999875,1513.8151945999998,1514.015312299991,1514.015312299991,1514.0148279666648,1515.2683583999897,1524.206096599999,1524.0975402999902,"[2.718159800002468, 7.65281810000306]",1524.2015856999933,1531.6185458999971,2,1531.6186095999874,1531.6186373999954,None,2,1524.206096599999,1524.206096599999,1524.206096599999,7.401961700001266,None,,,,,,,,,,340,001,2026-04-02_13h31.21.215,exp_sofc,,2025.2.3,60.407411745226796,2026-04-02 13h31.21.983025 +0200,
,86,0,86,,,,,,,,,,,,,,,,,,,,,,None,None,,,,,,,,,,,,,86,0,86,0,1531.7231348999921,,,,,,,,,,,,,,,,,,,,,,,,,,,,,,,,,,,,,,,,,,,,,,clips/clip_claude_05_nosub_2.mp4,audios/silence.mp3,visual,1531.7168830999872,1532.127767099999,1532.3280282999913,1532.3280282999913,1532.3275597666545,1533.579736499989,1543.8351731999865,1543.6290007999924,[5.484850699998788],1543.7303924000007,1543.7304252999893,None,1543.730452399992,1543.730467699992,None,,,,,,,,,,,,,,,,340,001,2026-04-02_13h31.21.215,exp_sofc,,2025.2.3,60.407411745226796,2026-04-02 13h31.21.983025 +0200,
,87,0,87,,,,,,,,,,,,,,,,,,,,,,None,None,,,,,,,,,,,,,87,0,87,0,1543.8351731999865,,,,,,,,,,,,,,,,,,,,,,,,,,,,,,,,,,,,,,,,,,,,,,clips/clip_hund_27_nosub_1.mp4,audios/silence.mp3,visual,1543.8296948999923,1544.2384281999985,1544.4397265000007,1544.4397265000007,1544.438690766667,1545.6911349000002,1554.8804952999926,1554.6710243999987,[4.7816641999961575],1554.7694252999936,1554.7694629999896,None,1554.76950509999,1554.769572099991,None,,,,,,,,,,,,,,,,340,001,2026-04-02_13h31.21.215,exp_sofc,,2025.2.3,60.407411745226796,2026-04-02 13h31.21.983025 +0200,
,88,0,88,,,,,,,,,,,,,,,,,,,,,,None,None,,,,,,,,,,,,,88,0,88,0,1554.8804952999926,,,,,,,,,,,,,,,,,,,,,,,,,,,,,,,,,,,,,,,,,,,,,,clips/clip_claude_22_sub_2.mp4,audios/silence.mp3,visual,1554.8749038999958,1555.2805713999987,1555.4808485999965,1555.4808485999965,1555.4809399666594,1556.7324665999913,1566.4481977999967,1566.2316101999895,[8.505203099994105],1566.3239007999946,1566.3239446999942,None,1566.3239871999976,1566.3240062999976,None,,,,,,,,,,,,,,,,340,001,2026-04-02_13h31.21.215,exp_sofc,,2025.2.3,60.407411745226796,2026-04-02 13h31.21.983025 +0200,
,89,0,89,,,,,,,,,,,,,,,,,,,,,,None,None,,,,,,,,,,,,,89,0,89,0,1566.4481977999967,,,,,,,,,,,,,,,,,,,,,,,,,,,,,,,,,,,,,,,,,,,,,,clips/clip_wurst_31_sub_1.mp4,audios/clip_wurst_31_sub_1.mp3,audiovisual,1566.4433598999894,1566.8312832999945,1567.031912999999,1567.031912999999,1567.0314353666656,1577.0470943999971,1578.2139771999937,1578.0498831999867,[],1578.1250793999934,1578.1251656999957,None,1578.1252242999908,1578.1252489999897,None,,,,,,,,,,,,,,,,340,001,2026-04-02_13h31.21.215,exp_sofc,,2025.2.3,60.407411745226796,2026-04-02 13h31.21.983025 +0200,
,90,0,90,,,,,,,,,,,,,,,,,,,,,,None,None,,,,,,,,,,,,,90,0,90,0,1578.2139771999937,,,,,,,,,,,,,,,,,,,,,,,,,,,,,,,,,,,,,,,,,,,,,,clips/clip_lied_17_nosub_2.mp4,audios/silence.mp3,visual,1578.2082643999893,1578.6302811999922,1578.830761099991,1578.830761099991,1578.8305577666654,1580.0828514999885,1589.0863654999994,1588.8633880999987,"[2.75884280000173, 7.923067800002173]",1588.9565069999953,1588.9565593000007,None,1588.956594599993,1588.9566128000006,None,,,,,,,,,,,,,,,,340,001,2026-04-02_13h31.21.215,exp_sofc,,2025.2.3,60.407411745226796,2026-04-02 13h31.21.983025 +0200,
,91,0,91,,,,,,,,,,,,,,,,,,,,,,None,None,,,,,,,,,,,,,91,0,91,0,1589.0863654999994,,,,,,,,,,,,,,,,,,,,,,,,,,,,,,,,,,,,,,,,,,,,,,clips/clip_wurst_19_nosub_0.mp4,audios/clip_wurst_19_nosub_0.mp3,audiovisual,1589.0812085999933,1589.4573353999876,1589.6563050999976,1589.6563050999976,1589.657387266667,1600.689630599998,1600.9175839999953,1600.6899208999967,[],1600.7883203999954,1600.7883576999884,None,1600.788417799995,1600.7884593999916,None,,,,,,,,,,,,,,,,340,001,2026-04-02_13h31.21.215,exp_sofc,,2025.2.3,60.407411745226796,2026-04-02 13h31.21.983025 +0200,
,92,0,92,,,,,,,,,,,,,,,,,,,,,,None,None,,,,,,,,,,,,,92,0,92,0,1600.9175839999953,,,,,,,,,,,,,,,,,,,,,,,,,,,,,,,,,,,,,,,,,,,,,,clips/clip_claude_01_nosub_2.mp4,audios/clip_claude_01_nosub_2.mp3,audiovisual,1600.9115816999984,1601.2912721999892,1601.4913188999926,1601.4913188999926,1601.4914797666609,1612.4578409999958,1612.6692321999872,1612.4579957999958,"[7.048925199997029, 9.732425900001545]",1612.5652630999975,1612.5652985999914,None,1612.5653399000003,1612.5653678999952,None,,,,,,,,,,,,,,,,340,001,2026-04-02_13h31.21.215,exp_sofc,,2025.2.3,60.407411745226796,2026-04-02 13h31.21.983025 +0200,
,93,0,93,,,,,,,,,,,,,,,,,,,,,,None,None,,,,,,,,,,,,,93,0,93,0,1612.6692321999872,,,,,,,,,,,,,,,,,,,,,,,,,,,,,,,,,,,,,,,,,,,,,,clips/clip_hund_11_sub_1.mp4,audios/silence.mp3,visual,1612.6636385999882,1613.0688004999975,1613.2715514999873,1613.2715514999873,1613.2691644666668,1614.5220611999976,1623.2220791,1623.0016296999966,[6.243882599999779],1623.090821299993,1623.0908688999916,None,1623.0909172999964,1623.0909459999966,None,,,,,,,,,,,,,,,,340,001,2026-04-02_13h31.21.215,exp_sofc,,2025.2.3,60.407411745226796,2026-04-02 13h31.21.983025 +0200,
,94,0,94,,,,,,,,,,,,,,,,,,,,,,None,None,,,,,,,,,,,,,94,0,94,0,1623.2220791,,,,,,,,,,,,,,,,,,,,,,,,,,,,,,,,,,,,,,,,,,,,,,clips/clip_weißt_27_nosub_1.mp4,audios/clip_weißt_27_nosub_1.mp3,audiovisual,1623.2170148000005,1623.6024847999943,1623.8026594999974,1623.8026594999974,1623.8023543666534,1634.099852299987,1634.099852299987,1633.886031499991,[8.16054830000212],1633.9721919000003,1633.9722623999987,None,1633.9723597999982,1633.9723983999866,None,,,,,,,,,,,,,,,,340,001,2026-04-02_13h31.21.215,exp_sofc,,2025.2.3,60.407411745226796,2026-04-02 13h31.21.983025 +0200,
,95,0,95,,,,,,,,,,,,,,,,,,,,,,None,None,,,,,,,,,,,,,95,0,95,0,1634.099852299987,,,,,,,,,,,,,,,,,,,,,,,,,,,,,,,,,,,,,,,,,,,,,,clips/clip_claude_16_nosub_1.mp4,audios/clip_claude_16_nosub_1.mp3,audiovisual,1634.0961282999924,1634.4846655000001,1634.6851141999941,1634.6851141999941,1634.6846875666563,1646.0956745999865,1646.0956745999865,1645.8911991999921,[9.043251500013866],1645.9876651999948,1645.9877048999915,None,1645.9877879999985,1645.9878308999905,None,,,,,,,,,,,,,,,,340,001,2026-04-02_13h31.21.215,exp_sofc,,2025.2.3,60.407411745226796,2026-04-02 13h31.21.983025 +0200,
,96,0,96,,,,,,,,,,,,,,,,,,,,,,4,None,6.430057500008843,None,,,,,,,,,,,96,0,96,0,1646.0956745999865,,,,,,,,,,,,,,,,,,,,,,,,,,,,,,,,,,,,,,,,,,,,,,clips/clip_holo_05_sub_2.mp4,audios/silence.mp3,visual,1646.0901412999956,1646.4958273999946,1646.6959730999952,1646.6959730999952,1646.6954896666614,1647.9488467999909,1655.9259682999982,1655.826897299994,[7.079997799999546],1655.9201499999908,1662.3618079000007,4,1662.3618677999912,1662.3618930999946,None,4,1655.9259682999982,1655.9259682999982,1655.9259682999982,6.430057500008843,None,,,,,,,,,,340,001,2026-04-02_13h31.21.215,exp_sofc,,2025.2.3,60.407411745226796,2026-04-02 13h31.21.983025 +0200,
,97,0,97,,,,,,,,,,,,,,,,,,,,,,None,None,,,,,,,,,,,,,97,0,97,0,1662.5056899999909,,,,,,,,,,,,,,,,,,,,,,,,,,,,,,,,,,,,,,,,,,,,,,clips/clip_claude_20_nosub_1.mp4,audios/clip_claude_20_nosub_1.mp3,audiovisual,1662.4997869999934,1662.8709291999985,1663.071650999991,1663.071650999991,1663.0713036666605,1675.0898263999989,1675.3281581999909,1675.0900444,[6.951071599993156],1675.1990963999997,1675.1991300999944,None,1675.1991601999907,1675.1991802999983,None,,,,,,,,,,,,,,,,340,001,2026-04-02_13h31.21.215,exp_sofc,,2025.2.3,60.407411745226796,2026-04-02 13h31.21.983025 +0200,
,98,0,98,,,,,,,,,,,,,,,,,,,,,,None,None,,,,,,,,,,,,,98,0,98,0,1675.3281581999909,,,,,,,,,,,,,,,,,,,,,,,,,,,,,,,,,,,,,,,,,,,,,,clips/clip_lied_08_sub_1.mp4,audios/clip_lied_08_sub_1.mp3,audiovisual,1675.3239672999916,1675.7124197999947,1675.913204899989,1675.913204899989,1675.9133571666646,,1685.209458199999,1685.0159742999967,[7.88769869999669],1685.1130440999987,1685.1130910999927,None,1685.1131324999878,1685.1131625999988,None,,,,,,,,,,,,,,,,340,001,2026-04-02_13h31.21.215,exp_sofc,,2025.2.3,60.407411745226796,2026-04-02 13h31.21.983025 +0200,
,99,0,99,,,,,,,,,,,,,,,,,,,,,,None,None,,,,,,,,,,,,,99,0,99,0,1685.209458199999,,,,,,,,,,,,,,,,,,,,,,,,,,,,,,,,,,,,,,,,,,,,,,clips/clip_wurst_27_sub_1.mp4,audios/silence.mp3,visual,1685.2037162999914,1685.6196357000008,1685.8216684999934,1685.8216684999934,1685.8202035666657,1687.0725965999882,1696.224534699999,1696.0190546999947,[6.356340900005307],1696.099423199994,1696.0994772999984,None,1696.0995682999928,1696.0995999999868,None,,,,,,,,,,,,,,,,340,001,2026-04-02_13h31.21.215,exp_sofc,,2025.2.3,60.407411745226796,2026-04-02 13h31.21.983025 +0200,
,100,0,100,,,,,,,,,,,,,,,,,,,,,,None,None,,,,,,,,,,,,,100,0,100,0,1696.224534699999,,,,,,,,,,,,,,,,,,,,,,,,,,,,,,,,,,,,,,,,,,,,,,clips/clip_claude_19_nosub_0.mp4,audios/clip_claude_19_nosub_0.mp3,audiovisual,1696.2197149999993,1696.6114850999875,1696.8119819999993,1696.8119819999993,1696.8120459666573,1707.4401190999924,1707.4401190999924,1707.228012099993,[],1707.3235235999891,1707.3235690999863,None,1707.3236098999914,1707.323633299995,None,,,,,,,,,,,,,,,,340,001,2026-04-02_13h31.21.215,exp_sofc,,2025.2.3,60.407411745226796,2026-04-02 13h31.21.983025 +0200,
,101,0,101,,,,,,,,,,,,,,,,,,,,,,1,None,6.966357600002084,None,,,,,,,,,,,101,0,101,0,1707.4401190999924,,,,,,,,,,,,,,,,,,,,,,,,,,,,,,,,,,,,,,,,,,,,,,clips/clip_claude_29_sub_0.mp4,audios/clip_claude_29_sub_0.mp3,audiovisual,1707.4349296,1707.8228671999968,1708.0234166999871,1708.0234166999871,1708.0238028666538,1718.0555147999985,1718.16585759999,1718.0557752999885,[],1718.158940999987,1725.142599599989,1,1725.142659499994,1725.1426874999888,None,1,1718.16585759999,1718.16585759999,1718.16585759999,6.966357600002084,None,,,,,,,,,,340,001,2026-04-02_13h31.21.215,exp_sofc,,2025.2.3,60.407411745226796,2026-04-02 13h31.21.983025 +0200,
,102,0,102,,,,,,,,,,,,,,,,,,,,,,None,None,,,,,,,,,,,,,102,0,102,0,1725.2422365999955,,,,,,,,,,,,,,,,,,,,,,,,,,,,,,,,,,,,,,,,,,,,,,clips/clip_holo_19_nosub_1.mp4,audios/silence.mp3,visual,1725.236027299994,1725.6515664999897,1725.8522864999977,1725.8522864999977,1725.8516853666554,1727.1038285999966,1736.0503914,1735.868037399996,[6.595461800010526],1735.9566701999865,1735.9567024999997,None,1735.9567322999937,1735.9567479999969,None,,,,,,,,,,,,,,,,340,001,2026-04-02_13h31.21.215,exp_sofc,,2025.2.3,60.407411745226796,2026-04-02 13h31.21.983025 +0200,
,103,0,103,,,,,,,,,,,,,,,,,,,,,,None,None,,,,,,,,,,,,,103,0,103,0,1736.0503914,,,,,,,,,,,,,,,,,,,,,,,,,,,,,,,,,,,,,,,,,,,,,,clips/clip_herz_11_sub_0.mp4,audios/silence.mp3,visual,1736.0449200999865,1736.4683146999887,1736.6689821999898,1736.6689821999898,1736.6685705666644,1737.9219757999963,1746.180163099998,1745.9678424999875,[5.051743000003626],1746.0690049999976,1746.0690684,None,1746.0692019999988,1746.0692237999901,None,,,,,,,,,,,,,,,,340,001,2026-04-02_13h31.21.215,exp_sofc,,2025.2.3,60.407411745226796,2026-04-02 13h31.21.983025 +0200,
,104,0,104,,,,,,,,,,,,,,,,,,,,,,None,None,,,,,,,,,,,,,104,0,104,0,1746.180163099998,,,,,,,,,,,,,,,,,,,,,,,,,,,,,,,,,,,,,,,,,,,,,,clips/clip_holo_01_sub_1.mp4,audios/silence.mp3,visual,1746.1761540000007,1746.5810937999922,1746.7817352999991,1746.7817352999991,1746.781559766667,1748.0333879999962,1756.190691699987,1755.979447699996,[4.752990499997395],1756.0715503999963,1756.071697499996,None,1756.0717637999915,1756.0717903999903,None,,,,,,,,,,,,,,,,340,001,2026-04-02_13h31.21.215,exp_sofc,,2025.2.3,60.407411745226796,2026-04-02 13h31.21.983025 +0200,
,105,0,105,,,,,,,,,,,,,,,,,,,,,,None,None,,,,,,,,,,,,,105,0,105,0,1756.190691699987,,,,,,,,,,,,,,,,,,,,,,,,,,,,,,,,,,,,,,,,,,,,,,clips/clip_holo_06_nosub_2.mp4,audios/clip_holo_06_nosub_2.mp3,audiovisual,1756.1850926999905,1756.5734627999918,1756.7739240999945,1756.7739240999945,1756.7740034666533,1766.53926949999,1766.7511164999887,1766.5395109999954,"[5.447985999999219, 8.961724900000263]",1766.639304299999,1766.6393450999894,None,1766.6394257999928,1766.6394518999878,None,,,,,,,,,,,,,,,,340,001,2026-04-02_13h31.21.215,exp_sofc,,2025.2.3,60.407411745226796,2026-04-02 13h31.21.983025 +0200,
,106,0,106,,,,,,,,,,,,,,,,,,,,,,2,None,3.8817631999991136,None,,,,,,,,,,,106,0,106,0,1766.7511164999887,,,,,,,,,,,,,,,,,,,,,,,,,,,,,,,,,,,,,,,,,,,,,,clips/clip_wurst_06_sub_2.mp4,audios/clip_wurst_06_sub_2.mp3,audiovisual,1766.7470446999941,1767.1516999999876,1767.3527357999992,1767.3527357999992,1767.3522965666673,1778.5404010999919,1778.5404010999919,1778.435254799988,"[2.93369900000107, 8.751469700000598]",1778.5333790999866,1782.434049699994,2,1782.4341150999971,1782.4341438999982,None,2,1778.5404010999919,1778.5404010999919,1778.5404010999919,3.8817631999991136,None,,,,,,,,,,340,001,2026-04-02_13h31.21.215,exp_sofc,,2025.2.3,60.407411745226796,2026-04-02 13h31.21.983025 +0200,
,107,0,107,,,,,,,,,,,,,,,,,,,,,,None,None,,,,,,,,,,,,,107,0,107,0,1782.5375230999925,,,,,,,,,,,,,,,,,,,,,,,,,,,,,,,,,,,,,,,,,,,,,,clips/clip_herz_16_nosub_0.mp4,audios/silence.mp3,visual,1782.5313575999899,1782.9429104999872,1783.1436694000004,1783.1436694000004,1783.1432781666556,1784.396631999989,1792.372489299989,1792.173958399988,[],1792.2609467999864,1792.2609806999972,None,1792.2610098000005,1792.261025499989,None,,,,,,,,,,,,,,,,340,001,2026-04-02_13h31.21.215,exp_sofc,,2025.2.3,60.407411745226796,2026-04-02 13h31.21.983025 +0200,
,108,0,108,,,,,,,,,,,,,,,,,,,,,,None,None,,,,,,,,,,,,,108,0,108,0,1792.372489299989,,,,,,,,,,,,,,,,,,,,,,,,,,,,,,,,,,,,,,,,,,,,,,clips/clip_herz_03_sub_2.mp4,audios/silence.mp3,visual,1792.3669957999955,1792.7664336999878,1792.9669907999923,1792.9669907999923,1792.966641466661,1794.218744999991,1805.560766399998,1805.3538894999947,"[4.806913100008387, 11.88176889999886]",1805.4459623999865,1805.4460097999981,None,1805.4460523999878,1805.4460683999932,None,,,,,,,,,,,,,,,,340,001,2026-04-02_13h31.21.215,exp_sofc,,2025.2.3,60.407411745226796,2026-04-02 13h31.21.983025 +0200,
,109,0,109,,,,,,,,,,,,,,,,,,,,,,None,None,,,,,,,,,,,,,109,0,109,0,1805.560766399998,,,,,,,,,,,,,,,,,,,,,,,,,,,,,,,,,,,,,,,,,,,,,,clips/clip_herz_07_sub_2.mp4,audios/clip_herz_07_sub_2.mp3,audiovisual,1805.5556216999976,1805.9453483999969,1806.1463840999932,1806.1463840999932,1806.1458921666674,1818.3804885999998,1818.3804885999998,1818.166360099989,"[4.790506700010155, 11.326446400009445]",1818.2606722999917,1818.2607175999874,None,1818.2607584999932,1818.260789299995,None,,,,,,,,,,,,,,,,340,001,2026-04-02_13h31.21.215,exp_sofc,,2025.2.3,60.407411745226796,2026-04-02 13h31.21.983025 +0200,
,110,0,110,,,,,,,,,,,,,,,,,,,,,,None,None,,,,,,,,,,,,,110,0,110,0,1818.3804885999998,,,,,,,,,,,,,,,,,,,,,,,,,,,,,,,,,,,,,,,,,,,,,,clips/clip_holo_20_nosub_1.mp4,audios/clip_holo_20_nosub_1.mp3,audiovisual,1818.3764177999983,1818.7650404999877,1818.9651851999952,1818.9651851999952,1818.964729866657,1828.3964104999905,1828.5968705999985,1828.396618999992,[2.4861515999946278],1828.4867282999912,1828.4867815999896,None,1828.4868368999887,1828.4868652000005,None,,,,,,,,,,,,,,,,340,001,2026-04-02_13h31.21.215,exp_sofc,,2025.2.3,60.407411745226796,2026-04-02 13h31.21.983025 +0200,
,111,0,111,,,,,,,,,,,,,,,,,,,,,,None,None,,,,,,,,,,,,,111,0,111,0,1828.5968705999985,,,,,,,,,,,,,,,,,,,,,,,,,,,,,,,,,,,,,,,,,,,,,,clips/clip_holo_15_nosub_0.mp4,audios/silence.mp3,visual,1828.5912459999963,1828.9885473999893,1829.1892063999985,1829.1892063999985,1829.1889147666554,1830.4417332999874,1838.6029699999926,1838.3871236999985,[6.515828699994017],1838.4686184999882,1838.4687349999876,None,1838.4687852999923,1838.4688088999974,None,,,,,,,,,,,,,,,,340,001,2026-04-02_13h31.21.215,exp_sofc,,2025.2.3,60.407411745226796,2026-04-02 13h31.21.983025 +0200,
,112,0,112,,,,,,,,,,,,,,,,,,,,,,None,None,,,,,,,,,,,,,112,0,112,0,1838.6029699999926,,,,,,,,,,,,,,,,,,,,,,,,,,,,,,,,,,,,,,,,,,,,,,clips/clip_holo_17_nosub_0.mp4,audios/clip_holo_17_nosub_0.mp3,audiovisual,1838.5976372000005,1838.9691588999995,1839.1713186999987,1839.1713186999987,1839.169549466653,1849.192302999989,1849.192302999989,1849.0019338999991,[],1849.083622799997,1849.0836724999972,None,1849.0838131999917,1849.0838382999937,None,,,,,,,,,,,,,,,,340,001,2026-04-02_13h31.21.215,exp_sofc,,2025.2.3,60.407411745226796,2026-04-02 13h31.21.983025 +0200,
,113,0,113,,,,,,,,,,,,,,,,,,,,,,None,None,,,,,,,,,,,,,113,0,113,0,1849.192302999989,,,,,,,,,,,,,,,,,,,,,,,,,,,,,,,,,,,,,,,,,,,,,,clips/clip_holo_21_sub_1.mp4,audios/silence.mp3,visual,1849.1865088999912,1849.5927238999866,1849.7924840999913,1849.7924840999913,1849.7926269666534,1851.0443591999938,1860.1871231999976,1859.9917223999946,[4.65889760000573],1860.0860641999898,1860.086104899994,None,1860.0862113999901,1860.0862624999863,None,,,,,,,,,,,,,,,,340,001,2026-04-02_13h31.21.215,exp_sofc,,2025.2.3,60.407411745226796,2026-04-02 13h31.21.983025 +0200,
,114,0,114,,,,,,,,,,,,,,,,,,,,,,None,None,,,,,,,,,,,,,114,0,114,0,1860.1871231999976,,,,,,,,,,,,,,,,,,,,,,,,,,,,,,,,,,,,,,,,,,,,,,clips/clip_wurst_03_sub_1.mp4,audios/silence.mp3,visual,1860.1813540000003,1860.6005723999988,1860.8013490999874,1860.8013490999874,1860.8010358666545,1862.0540158999938,1872.9113777999883,1872.7203258999944,[4.59179839999706],1872.8059179999982,1872.8059792999993,None,1872.8060243999935,1872.8060471999925,None,,,,,,,,,,,,,,,,340,001,2026-04-02_13h31.21.215,exp_sofc,,2025.2.3,60.407411745226796,2026-04-02 13h31.21.983025 +0200,
,115,0,115,,,,,,,,,,,,,,,,,,,,,,None,None,,,,,,,,,,,,,115,0,115,0,1872.9113777999883,,,,,,,,,,,,,,,,,,,,,,,,,,,,,,,,,,,,,,,,,,,,,,clips/clip_claude_10_sub_0.mp4,audios/silence.mp3,visual,1872.9056791999901,1873.3132366999926,1873.528277599995,1873.511448899997,1873.5118867666645,1874.7645333999972,1884.9223067999992,1884.7289439999877,[],1884.8205583999952,1884.8206242999877,None,1884.8206596999953,1884.8206776999868,None,,,,,,,,,,,,,,,,340,001,2026-04-02_13h31.21.215,exp_sofc,,2025.2.3,60.407411745226796,2026-04-02 13h31.21.983025 +0200,
,116,0,116,,,,,,,,,,,,,,,,,,,,,,None,None,,,,,,,,,,,,,116,0,116,0,1884.9223067999992,,,,,,,,,,,,,,,,,,,,,,,,,,,,,,,,,,,,,,,,,,,,,,clips/clip_weißt_30_sub_2.mp4,audios/silence.mp3,visual,1884.9164085999946,1885.321150799995,1885.5223931999935,1885.5223931999935,1885.5215263666653,1886.7733289999887,1897.7678814999963,1897.5408285999874,"[3.355554200010374, 12.030812299999525]",1897.6427452999924,1897.642778999987,None,1897.6428171000007,1897.64283479999,None,,,,,,,,,,,,,,,,340,001,2026-04-02_13h31.21.215,exp_sofc,,2025.2.3,60.407411745226796,2026-04-02 13h31.21.983025 +0200,
,117,0,117,,,,,,,,,,,,,,,,,,,,,,None,None,,,,,,,,,,,,,117,0,117,0,1897.7678814999963,,,,,,,,,,,,,,,,,,,,,,,,,,,,,,,,,,,,,,,,,,,,,,clips/clip_hund_09_sub_2.mp4,audios/clip_hund_09_sub_2.mp3,audiovisual,1897.7643635999993,1898.157827099989,1898.3594279999961,1898.3594279999961,1898.3576200666614,,1910.12393229999,1909.91054479999,"[6.010038099993835, 11.302158299993607]",1909.9985813999956,1909.9986222000007,None,1909.998666399988,1909.9987425,None,,,,,,,,,,,,,,,,340,001,2026-04-02_13h31.21.215,exp_sofc,,2025.2.3,60.407411745226796,2026-04-02 13h31.21.983025 +0200,
,118,0,118,,,,,,,,,,,,,,,,,,,,,,2,None,4.926448700003675,None,,,,,,,,,,,118,0,118,0,1910.12393229999,,,,,,,,,,,,,,,,,,,,,,,,,,,,,,,,,,,,,,,,,,,,,,clips/clip_herz_15_sub_0.mp4,audios/clip_herz_15_sub_0.mp3,audiovisual,1910.1188712999865,1910.5068665,1910.7074917999998,1910.7074917999998,1910.7071487666583,1922.8318770999904,1922.8318770999904,1922.7262574999913,"[3.4965517000091495, 9.500985300008324]",1922.8254995999887,1927.7590650999919,2,1927.7591167999926,1927.759137199988,None,2,1922.8318770999904,1922.8318770999904,1922.8318770999904,4.926448700003675,None,,,,,,,,,,340,001,2026-04-02_13h31.21.215,exp_sofc,,2025.2.3,60.407411745226796,2026-04-02 13h31.21.983025 +0200,
,119,0,119,,,,,,,,,,,,,,,,,,,,,,None,None,,,,,,,,,,,,,119,0,119,0,1927.8907703999866,,,,,,,,,,,,,,,,,,,,,,,,,,,,,,,,,,,,,,,,,,,,,,clips/clip_weißt_07_nosub_1.mp4,audios/clip_weißt_07_nosub_1.mp3,audiovisual,1927.8851601999922,1928.2595625999966,1928.461808299995,1928.461808299995,1928.460029266662,1938.1924684999976,1938.2967933999898,1938.1925999999949,[4.083797800005414],1938.2885408000002,1938.2885720999911,None,1938.2885999999999,2058.2999737999926,None,,,,,,,1938.2967933999898,1938.2967933999898,1938.2967933999898,,,2058.299794199993,2058.299794199993,,,340,001,2026-04-02_13h31.21.215,exp_sofc,,2025.2.3,60.407411745226796,2026-04-02 13h31.21.983025 +0200,
,120,0,120,,,,,,,,,,,,,,,,,,,,,,None,None,,,,,,,,,,,,,120,0,120,0,2058.4288933999924,,,,,,,,,,,,,,,,,,,,,,,,,,,,,,,,,,,,,,,,,,,,,,clips/clip_lied_01_nosub_1.mp4,audios/clip_lied_01_nosub_1.mp3,audiovisual,2058.4237078999868,2058.800496099997,2059.001134799997,2059.001134799997,2059.0006711666542,2069.0335542999965,2069.2202873999922,2069.0337569999974,[4.748619299993152],2069.121636699987,2069.1216713999893,None,2069.1217225,2069.121742599993,None,,,,,,,,,,,,,,,,340,001,2026-04-02_13h31.21.215,exp_sofc,,2025.2.3,60.407411745226796,2026-04-02 13h31.21.983025 +0200,
,121,0,121,,,,,,,,,,,,,,,,,,,,,,None,None,,,,,,,,,,,,,121,0,121,0,2069.2202873999922,,,,,,,,,,,,,,,,,,,,,,,,,,,,,,,,,,,,,,,,,,,,,,clips/clip_herz_09_sub_0.mp4,audios/silence.mp3,visual,2069.2146274999977,2069.6366744999978,2069.837495899992,2069.837495899992,2069.8374981666607,2071.089976599993,2081.5423240999953,2081.3550628999947,[],2081.442243499987,2081.4422792999976,None,2081.4423278999893,2081.442364799994,None,,,,,,,,,,,,,,,,340,001,2026-04-02_13h31.21.215,exp_sofc,,2025.2.3,60.407411745226796,2026-04-02 13h31.21.983025 +0200,
,122,0,122,,,,,,,,,,,,,,,,,,,,,,None,None,,,,,,,,,,,,,122,0,122,0,2081.5423240999953,,,,,,,,,,,,,,,,,,,,,,,,,,,,,,,,,,,,,,,,,,,,,,clips/clip_hund_36_sub_2.mp4,audios/silence.mp3,visual,2081.5368467999942,2081.9419400999905,2082.142457099995,2082.142457099995,2082.14213016666,2083.3944922999945,2091.515769699996,2091.3076991999988,"[3.091709300002549, 6.784096799994586]",2091.4077718999906,2091.407818199994,None,2091.4078878,2091.4079141999973,None,,,,,,,,,,,,,,,,340,001,2026-04-02_13h31.21.215,exp_sofc,,2025.2.3,60.407411745226796,2026-04-02 13h31.21.983025 +0200,
,123,0,123,,,,,,,,,,,,,,,,,,,,,,3,None,4.36059650000243,None,,,,,,,,,,,123,0,123,0,2091.515769699996,,,,,,,,,,,,,,,,,,,,,,,,,,,,,,,,,,,,,,,,,,,,,,clips/clip_wurst_08_nosub_1.mp4,audios/silence.mp3,visual,2091.5099746999913,2091.915831399994,2092.116258899987,2092.116258899987,2092.116207466654,2093.36827359999,2100.747460499988,2100.639898499998,[5.933058700000402],2100.7419194999966,2105.1224763999926,3,2105.1225432999927,2105.122571899992,None,3,2100.747460499988,2100.747460499988,2100.747460499988,4.36059650000243,None,,,,,,,,,,340,001,2026-04-02_13h31.21.215,exp_sofc,,2025.2.3,60.407411745226796,2026-04-02 13h31.21.983025 +0200,
,124,0,124,,,,,,,,,,,,,,,,,,,,,,None,None,,,,,,,,,,,,,124,0,124,0,2105.2629885999922,,,,,,,,,,,,,,,,,,,,,,,,,,,,,,,,,,,,,,,,,,,,,,clips/clip_dampf_01_nosub_0.mp4,audios/clip_dampf_01_nosub_0.mp3,audiovisual,2105.2560734,2105.6284024999914,2105.8289449999866,2105.8289449999866,2105.829033266655,2115.27764629999,2115.4667155999923,2115.27783549999,[],2115.3745225999883,2115.3745558999944,None,2115.374584899997,2115.3746004999994,None,,,,,,,,,,,,,,,,340,001,2026-04-02_13h31.21.215,exp_sofc,,2025.2.3,60.407411745226796,2026-04-02 13h31.21.983025 +0200,
,125,0,125,,,,,,,,,,,,,,,,,,,,,,3,None,5.620853500004159,None,,,,,,,,,,,125,0,125,0,2115.4667155999923,,,,,,,,,,,,,,,,,,,,,,,,,,,,,,,,,,,,,,,,,,,,,,clips/clip_wurst_28_sub_1.mp4,audios/silence.mp3,visual,2115.4609895999893,2115.8830237999937,2116.08371739999,2116.08371739999,2116.083427866663,2117.33671209999,2126.5179617999966,2126.4162189999915,[],2126.512994699995,2132.150264600001,3,2132.150326499992,2132.1503546999884,None,3,2126.5179617999966,2126.5179617999966,2126.5179617999966,5.620853500004159,None,,,,,,,,,,340,001,2026-04-02_13h31.21.215,exp_sofc,,2025.2.3,60.407411745226796,2026-04-02 13h31.21.983025 +0200,
,126,0,126,,,,,,,,,,,,,,,,,,,,,,None,None,,,,,,,,,,,,,126,0,126,0,2132.2688051000005,,,,,,,,,,,,,,,,,,,,,,,,,,,,,,,,,,,,,,,,,,,,,,clips/clip_weißt_16_nosub_0.mp4,audios/silence.mp3,visual,2132.2626489999966,2132.6510876999964,2132.8517477999994,2132.8517477999994,2132.851349066656,2134.103288399987,2143.5790071999945,2143.3855142999964,[],2143.480201899991,2143.4802348999947,None,2143.4802624000004,2143.480278099989,None,,,,,,,,,,,,,,,,340,001,2026-04-02_13h31.21.215,exp_sofc,,2025.2.3,60.407411745226796,2026-04-02 13h31.21.983025 +0200,
,127,0,127,,,,,,,,,,,,,,,,,,,,,,None,None,,,,,,,,,,,,,127,0,127,0,2143.5790071999945,,,,,,,,,,,,,,,,,,,,,,,,,,,,,,,,,,,,,,,,,,,,,,clips/clip_wurst_21_nosub_0.mp4,audios/silence.mp3,visual,2143.573040999996,2143.9944685999944,2144.1941159999988,2144.1941159999988,2144.193751266667,2145.4468718999997,2154.9338978999876,2154.7120447999914,[],2154.8024204999965,2154.802493799987,None,2154.8025438999903,2154.8025730999943,None,,,,,,,,,,,,,,,,340,001,2026-04-02_13h31.21.215,exp_sofc,,2025.2.3,60.407411745226796,2026-04-02 13h31.21.983025 +0200,
,128,0,128,,,,,,,,,,,,,,,,,,,,,,1,None,2.572995800001081,None,,,,,,,,,,,128,0,128,0,2154.9338978999876,,,,,,,,,,,,,,,,,,,,,,,,,,,,,,,,,,,,,,,,,,,,,,clips/clip_claude_15_sub_0.mp4,audios/clip_claude_15_sub_0.mp3,audiovisual,2154.9287342999887,2155.3121725999954,2155.5133848999976,2155.5133848999976,2155.513098166663,2167.622009899991,2167.622009899991,2167.5305804999953,[],2167.618397699989,2170.210236999992,1,2170.210296099991,2170.210323099993,None,1,2167.622009899991,2167.622009899991,2167.622009899991,2.572995800001081,None,,,,,,,,,,340,001,2026-04-02_13h31.21.215,exp_sofc,,2025.2.3,60.407411745226796,2026-04-02 13h31.21.983025 +0200,
,129,0,129,,,,,,,,,,,,,,,,,,,,,,None,None,,,,,,,,,,,,,129,0,129,0,2170.3112406,,,,,,,,,,,,,,,,,,,,,,,,,,,,,,,,,,,,,,,,,,,,,,clips/clip_lied_20_sub_2.mp4,audios/silence.mp3,visual,2170.305292899997,2170.718379099999,2170.9187776999897,2170.9187776999897,2170.918742066661,2172.171154399999,2181.83514689999,2181.618941199995,"[4.7890603999985615, 8.849230600011651]",2181.7147748999996,2181.7148094999866,None,2181.714839399996,2181.714856599996,None,,,,,,,,,,,,,,,,340,001,2026-04-02_13h31.21.215,exp_sofc,,2025.2.3,60.407411745226796,2026-04-02 13h31.21.983025 +0200,
,130,0,130,,,,,,,,,,,,,,,,,,,,,,None,None,,,,,,,,,,,,,130,0,130,0,2181.83514689999,,,,,,,,,,,,,,,,,,,,,,,,,,,,,,,,,,,,,,,,,,,,,,clips/clip_claude_25_nosub_0.mp4,audios/silence.mp3,visual,2181.829581099999,2182.218136299998,2182.4185039000004,2182.4185039000004,2182.4183678666636,2183.672256699996,2192.798580399991,2192.6179966999916,[],2192.7028556000005,2192.702892199988,None,2192.702954499997,2192.7029896999884,None,,,,,,,,,,,,,,,,340,001,2026-04-02_13h31.21.215,exp_sofc,,2025.2.3,60.407411745226796,2026-04-02 13h31.21.983025 +0200,
,131,0,131,,,,,,,,,,,,,,,,,,,,,,None,None,,,,,,,,,,,,,131,0,131,0,2192.798580399991,,,,,,,,,,,,,,,,,,,,,,,,,,,,,,,,,,,,,,,,,,,,,,clips/clip_weißt_11_nosub_0.mp4,audios/silence.mp3,visual,2192.792870999998,2193.2019482999895,2193.4026404999895,2193.4026404999895,2193.4022063666675,2194.655681599994,2203.669156399992,2203.43485949999,[],2203.5382097999973,2203.5382465000002,None,2203.5382993999956,2203.538354499993,None,,,,,,,,,,,,,,,,340,001,2026-04-02_13h31.21.215,exp_sofc,,2025.2.3,60.407411745226796,2026-04-02 13h31.21.983025 +0200,
,132,0,132,,,,,,,,,,,,,,,,,,,,,,None,None,,,,,,,,,,,,,132,0,132,0,2203.669156399992,,,,,,,,,,,,,,,,,,,,,,,,,,,,,,,,,,,,,,,,,,,,,,clips/clip_hund_04_nosub_0.mp4,audios/clip_hund_04_nosub_0.mp3,audiovisual,2203.664001099998,2204.0526993999956,2204.2534076999873,2204.2534076999873,2204.2531428666593,2213.785044999997,2214.020555199997,2213.785251699999,[],2213.883988699992,2213.8840262999875,None,2213.884064699989,2213.884095699992,None,,,,,,,,,,,,,,,,340,001,2026-04-02_13h31.21.215,exp_sofc,,2025.2.3,60.407411745226796,2026-04-02 13h31.21.983025 +0200,
,133,0,133,,,,,,,,,,,,,,,,,,,,,,None,None,,,,,,,,,,,,,133,0,133,0,2214.020555199997,,,,,,,,,,,,,,,,,,,,,,,,,,,,,,,,,,,,,,,,,,,,,,clips/clip_weißt_04_nosub_0.mp4,audios/clip_weißt_04_nosub_0.mp3,audiovisual,2214.0151282000006,2214.3875406000006,2214.588371399994,2214.588371399994,2214.587481666666,,2224.8832999000006,2224.6881831999926,[],2224.7720046999893,2224.772076299996,None,2224.7721402999887,2224.7721667999867,None,,,,,,,,,,,,,,,,340,001,2026-04-02_13h31.21.215,exp_sofc,,2025.2.3,60.407411745226796,2026-04-02 13h31.21.983025 +0200,
,134,0,134,,,,,,,,,,,,,,,,,,,,,,None,None,,,,,,,,,,,,,134,0,134,0,2224.8832999000006,,,,,,,,,,,,,,,,,,,,,,,,,,,,,,,,,,,,,,,,,,,,,,clips/clip_hund_07_sub_1.mp4,audios/silence.mp3,visual,2224.8774344999983,2225.2797943999904,2225.479875899997,2225.479875899997,2225.4796351666632,2226.713501799997,2237.303131499997,2237.0984413999977,[6.851161099999445],2237.19346889999,2237.1935061999975,None,2237.1935520999978,2237.193596199999,None,,,,,,,,,,,,,,,,340,001,2026-04-02_13h31.21.215,exp_sofc,,2025.2.3,60.407411745226796,2026-04-02 13h31.21.983025 +0200,
,135,0,135,,,,,,,,,,,,,,,,,,,,,,4,None,5.573128600008204,None,,,,,,,,,,,135,0,135,0,2237.303131499997,,,,,,,,,,,,,,,,,,,,,,,,,,,,,,,,,,,,,,,,,,,,,,clips/clip_hund_22_sub_1.mp4,audios/clip_hund_22_sub_1.mp3,audiovisual,2237.2987441000005,2237.707014899992,2237.9078886999923,2237.9078886999923,2237.907005866659,2247.922147999998,2248.0186995999975,2247.9223118999944,[8.982631899998523],2248.0146711999987,2253.606403999991,4,2253.6064647999883,2253.6064925999963,None,4,2248.0186995999975,2248.0186995999975,2248.0186995999975,5.573128600008204,None,,,,,,,,,,340,001,2026-04-02_13h31.21.215,exp_sofc,,2025.2.3,60.407411745226796,2026-04-02 13h31.21.983025 +0200,
,136,0,136,,,,,,,,,,,,,,,,,,,,,,None,None,,,,,,,,,,,,,136,0,136,0,2253.7156839999952,,,,,,,,,,,,,,,,,,,,,,,,,,,,,,,,,,,,,,,,,,,,,,clips/clip_claude_18_nosub_0.mp4,audios/silence.mp3,visual,2253.7094799999904,2254.1170095999987,2254.3162162999943,2254.3162162999943,2254.316515666655,2255.567710099989,2263.545698899994,2263.3469886999956,[],2263.440158799989,2263.4401910999877,None,2263.440220699995,2263.440236899987,None,,,,,,,,,,,,,,,,340,001,2026-04-02_13h31.21.215,exp_sofc,,2025.2.3,60.407411745226796,2026-04-02 13h31.21.983025 +0200,
,137,0,137,,,,,,,,,,,,,,,,,,,,,,None,None,,,,,,,,,,,,,137,0,137,0,2263.545698899994,,,,,,,,,,,,,,,,,,,,,,,,,,,,,,,,,,,,,,,,,,,,,,clips/clip_holo_11_sub_2.mp4,audios/clip_holo_11_sub_2.mp3,audiovisual,2263.5408303999866,2263.9560299999866,2264.156449199989,2264.13946559999,2264.1394624666614,2273.8047393999877,2274.013315999997,2273.804963399991,"[5.844709299999522, 10.113419599991175]",2273.8984234999953,2273.898463599995,None,2273.8984978999943,2273.898519399998,None,,,,,,,,,,,,,,,,340,001,2026-04-02_13h31.21.215,exp_sofc,,2025.2.3,60.407411745226796,2026-04-02 13h31.21.983025 +0200,
,138,0,138,,,,,,,,,,,,,,,,,,,,,,None,None,,,,,,,,,,,,,138,0,138,0,2274.013315999997,,,,,,,,,,,,,,,,,,,,,,,,,,,,,,,,,,,,,,,,,,,,,,clips/clip_wurst_32_nosub_1.mp4,audios/silence.mp3,visual,2274.007797099999,2274.397592399997,2274.5980323999975,2274.5980323999975,2274.5977759666607,2275.8491622999863,2285.4682147999993,2285.2309876999934,[7.468442299999879],2285.3428215999884,2285.3428638999903,None,2285.3429120999936,2285.342936599991,None,,,,,,,,,,,,,,,,340,001,2026-04-02_13h31.21.215,exp_sofc,,2025.2.3,60.407411745226796,2026-04-02 13h31.21.983025 +0200,
,139,0,139,,,,,,,,,,,,,,,,,,,,,,None,None,,,,,,,,,,,,,139,0,139,0,2285.4682147999993,,,,,,,,,,,,,,,,,,,,,,,,,,,,,,,,,,,,,,,,,,,,,,clips/clip_wurst_17_sub_0.mp4,audios/clip_wurst_17_sub_0.mp3,audiovisual,2285.462783099996,2285.8508871999948,2286.0520035999944,2286.0520035999944,2286.051749666662,2294.081135799992,2294.2794271999883,2294.081284999993,[],2294.1697107999935,2294.169753899987,None,2294.169880699992,2294.1699365999957,None,,,,,,,,,,,,,,,,340,001,2026-04-02_13h31.21.215,exp_sofc,,2025.2.3,60.407411745226796,2026-04-02 13h31.21.983025 +0200,
,140,0,140,,,,,,,,,,,,,,,,,,,,,,None,None,,,,,,,,,,,,,140,0,140,0,2294.2794271999883,,,,,,,,,,,,,,,,,,,,,,,,,,,,,,,,,,,,,,,,,,,,,,clips/clip_weißt_20_nosub_1.mp4,audios/silence.mp3,visual,2294.273678400001,2294.673286099991,2294.8734493999946,2294.8734493999946,2294.8732326666545,2296.125403699989,2304.923963999987,2304.7058361999952,[8.550739999991492],2304.809121399987,2304.8091671999864,None,2304.809244499993,2304.8092938999907,None,,,,,,,,,,,,,,,,340,001,2026-04-02_13h31.21.215,exp_sofc,,2025.2.3,60.407411745226796,2026-04-02 13h31.21.983025 +0200,
,141,0,141,,,,,,,,,,,,,,,,,,,,,,None,None,,,,,,,,,,,,,141,0,141,0,2304.923963999987,,,,,,,,,,,,,,,,,,,,,,,,,,,,,,,,,,,,,,,,,,,,,,clips/clip_weißt_25_nosub_1.mp4,audios/silence.mp3,visual,2304.9180617999955,2305.322980599987,2305.5232487999892,2305.5232487999892,2305.523179666667,2306.7754363999993,2317.7694378999877,2317.542041599998,[5.225680700008525],2317.6481895999896,2317.648250099999,None,2317.648307299998,2317.648334199999,None,,,,,,,,,,,,,,,,340,001,2026-04-02_13h31.21.215,exp_sofc,,2025.2.3,60.407411745226796,2026-04-02 13h31.21.983025 +0200,
,142,0,142,,,,,,,,,,,,,,,,,,,,,,None,None,,,,,,,,,,,,,142,0,142,0,2317.7694378999877,,,,,,,,,,,,,,,,,,,,,,,,,,,,,,,,,,,,,,,,,,,,,,clips/clip_hund_23_sub_1.mp4,audios/clip_hund_23_sub_1.mp3,audiovisual,2317.764689299991,2318.1604607999907,2318.36185619999,2318.36185619999,2318.3601321666542,2329.5024478999985,2329.5024478999985,2329.277011699989,[],2329.371046299988,2329.3710823999863,None,2329.371129399995,2329.3711927999975,None,,,,,,,,,,,,,,,,340,001,2026-04-02_13h31.21.215,exp_sofc,,2025.2.3,60.407411745226796,2026-04-02 13h31.21.983025 +0200,
,143,0,143,,,,,,,,,,,,,,,,,,,,,,3,None,3.19690010001068,None,,,,,,,,,,,143,0,143,0,2329.5024478999985,,,,,,,,,,,,,,,,,,,,,,,,,,,,,,,,,,,,,,,,,,,,,,clips/clip_weißt_12_sub_1.mp4,audios/clip_weißt_12_sub_1.mp3,audiovisual,2329.4968877999927,2329.8777966999914,2330.0784777999943,2330.0784777999943,2330.0780543666665,2341.996735099994,2342.0968180999917,2341.9969004999875,[9.133316499995999],2342.0899905999977,2345.3110518999893,3,2345.3110981999926,2345.311116699988,None,3,2342.0968180999917,2342.0968180999917,2342.0968180999917,3.19690010001068,None,,,,,,,,,,340,001,2026-04-02_13h31.21.215,exp_sofc,,2025.2.3,60.407411745226796,2026-04-02 13h31.21.983025 +0200,
