instruction_text,thisN,thisTrialN,thisRepN,key_resp_instruction.keys,key_resp_instruction.rt,key_resp_instruction.duration,clip_file,clip_path,sound_path,movie,subtitles,n_cut,clip_num,first_cut,second_cut,clip_duration,attention_check_question,attention_check_correct,attention_check_distractor_1,attention_check_distractor_2,attention_check_distractor_3,prac_attention_resp.keys,prac_attention_resp.rt,prac_attention_resp.duration,exp_atttention_resp.keys,exp_pause_resp.keys,exp_atttention_resp.rt,exp_atttention_resp.duration,exp_pause_resp.rt,exp_pause_resp.duration,instruction_trials.thisRepN,instruction_trials.thisTrialN,instruction_trials.thisN,instruction_trials.thisIndex,practice_trials.thisRepN,practice_trials.thisTrialN,practice_trials.thisN,practice_trials.thisIndex,experiment_trials.thisRepN,experiment_trials.thisTrialN,experiment_trials.thisN,experiment_trials.thisIndex,thisRow.t,notes,instructions.started,text_instruction.started,key_resp_instruction.started,instructions.stopped,instruction_trials.key_resp_instruction.keys,instruction_trials.key_resp_instruction.rt,instruction_trials.key_resp_instruction.duration,informed_consent.started,slider_informed_consent.started,text_informed_consent.started,informed_consent.stopped,slider_informed_consent.response,slider_informed_consent.rt,begin_practice.started,begin_practice_text.started,begin_practice.stopped,Practice_clip_name,Practice_video_used,Practice_audio_used,Practice_modality,Practice_subtitles,Practice_attention_check,practice_clip.started,prac_feedback.started,prac_fixation_cross.started,prac_fixation_cross.stopped,prac_clip.started,prac_sound.started,prac_sound.stopped,prac_clip.stopped,practice_clip.stopped,prac_all_cut_rts,practice_attention_check.started,practice_attention_check.stopped,practice_trials.prac_attention_resp.keys,Practice_correct_key_required,prac_attention_resp.started,prac_question.started,prac_options.started,practice_trials.prac_attention_resp.rt,practice_trials.prac_attention_resp.duration,begin_experiment.started,begin_experiment_text.started,begin_experiment_text.stopped,begin_experiment.stopped,video_used,audio_used,condition_modality,experiment_clip.started,exp_fixation_cross.started,exp_fixation_cross.stopped,exp_clip.started,exp_sound.started,exp_sound.stopped,exp_clip.stopped,experiment_clip.stopped,all_cut_rts,experiment_attention_check.started,experiment_attention_check.stopped,experiment_trials.exp_atttention_resp.keys,experiment_pause.started,experiment_pause.stopped,experiment_trials.exp_pause_resp.keys,correct_key_required,exp_atttention_resp.started,exp_question.started,exp_options.started,experiment_trials.exp_atttention_resp.rt,experiment_trials.exp_atttention_resp.duration,exp_pause_text.started,exp_pause_resp.started,exp_countdown.started,exp_pause_resp.stopped,exp_countdown.stopped,experiment_trials.exp_pause_resp.rt,experiment_trials.exp_pause_resp.duration,end.started,text_end.started,participant,session,date,expName,expVersion,psychopyVersion,frameRate,expStart,
"Herzlich willkommen!

Vielen Dank, dass Sie an unserer Studie teilnehmen. Die Untersuchung wird insgesamt etwa 35 Minuten in Anspruch nehmen.

Bevor wir beginnen, beachten Sie bitte folgende Voraussetzungen für die Teilnahme:
• Sie sind mindestens 18 Jahre alt.
• Ihre Muttersprache ist Deutsch.

(Drücken Sie die Leertaste, um fortzufahren)",0,0,0,space,6.307054699995206,None,,,,,,,,,,,,,,,,,,,,,,,,,0,0,0,0,,,,,,,,,0.045975600005476736,,0.01894360000733286,0.045975600005476736,0.045975600005476736,6.359672600010526,space,6.307054699995206,None,,,,,,,,,,,,,,,,,,,,,,,,,,,,,,,,,,,,,,,,,,,,,,,,,,,,,,,,,,,,,,,,,,,,,,,,345,001,2026-04-02_14h49.37.145,exp_sofc,,2025.2.3,59.38171755831682,2026-04-02 14h49.38.177905 +0200,
"Ablauf der Studie

Ihnen werden in schneller Abfolge viele kurze Filmclips gezeigt.
Ihre Aufgabe ist einfach:

Drücken Sie jedes Mal die Leertaste, wenn Sie einen Filmschnitt (Cut) erkennen.

Zusätzlich werden Ihnen gelegentlich kurze Verständnisfragen zu den gezeigten Clips gestellt.

(Drücken Sie die Leertaste, um fortzufahren),",1,1,0,space,7.058749000003445,None,,,,,,,,,,,,,,,,,,,,,,,,,0,1,1,1,,,,,,,,,6.380792500000098,,6.359771600007662,6.380792500000098,6.380792500000098,13.449549800003297,space,7.058749000003445,None,,,,,,,,,,,,,,,,,,,,,,,,,,,,,,,,,,,,,,,,,,,,,,,,,,,,,,,,,,,,,,,,,,,,,,,,345,001,2026-04-02_14h49.37.145,exp_sofc,,2025.2.3,59.38171755831682,2026-04-02 14h49.38.177905 +0200,
"Freiwilligkeit Ihrer Teilnahme

Ihre Teilnahme an dieser Studie ist absolut freiwillig. Sie können das Experiment jederzeit und ohne Angabe von Gründen abbrechen, ohne dass Ihnen daraus irgendwelche Nachteile entstehen.

Sollten Sie die Studie vorzeitig beenden, werden Ihre bis dahin erhobenen Daten umgehend gelöscht und nicht gespeichert.

(Drücken Sie die Leertaste, um fortzufahren)",2,2,0,space,5.378092700004345,None,,,,,,,,,,,,,,,,,,,,,,,,,0,2,2,2,,,,,,,,,13.534804000009899,,13.449684500010335,13.534804000009899,13.534804000009899,18.927665000010165,space,5.378092700004345,None,,,,,,,,,,,,,,,,,,,,,,,,,,,,,,,,,,,,,,,,,,,,,,,,,,,,,,,,,,,,,,,,,,,,,,,,345,001,2026-04-02_14h49.37.145,exp_sofc,,2025.2.3,59.38171755831682,2026-04-02 14h49.38.177905 +0200,
"Datenschutz und Anonymität

Die Erhebung und Auswertung Ihrer Daten erfolgt am Fachbereich Psychologie der Universität Tübingen und ist vollständig anonym. Ihr Name wird zu keinem Zeitpunkt erfragt oder gespeichert. Niemand wird Ihre Daten mit Ihrer Person in Verbindung bringen können.

Die anonymisierten Experimentaldaten werden nach Abschluss der Erhebung für mindestens 10 Jahre gespeichert und zu Forschungszwecken in einer öffentlichen Datenbank zugänglich gemacht.

(Drücken Sie die Leertaste, um fortzufahren),",3,3,0,space,7.823733400000492,None,,,,,,,,,,,,,,,,,,,,,,,,,0,3,3,3,,,,,,,,,18.957112300005974,,18.927794200004428,18.957112300005974,18.957112300005974,26.7893189000024,space,7.823733400000492,None,,,,,,,,,,,,,,,,,,,,,,,,,,,,,,,,,,,,,,,,,,,,,,,,,,,,,,,,,,,,,,,,,,,,,,,,345,001,2026-04-02_14h49.37.145,exp_sofc,,2025.2.3,59.38171755831682,2026-04-02 14h49.38.177905 +0200,
"Einverständniserklärung

Bitte lesen Sie die folgende Erklärung aufmerksam durch:

Ich bestätige, dass ich über 18 Jahre alt bin und ausreichend Zeit hatte, mich für die Teilnahme zu entscheiden. Ich wurde über die Erhebung, Verarbeitung und öffentliche Zugänglichmachung meiner anonymisierten Daten angemessen informiert.
Ich bin mir bewusst, dass ich das Experiment jederzeit abbrechen kann.

(Drücken Sie die Leertaste, um fortzufahren)",4,4,0,space,3.0235309999989113,None,,,,,,,,,,,,,,,,,,,,,,,,,0,4,4,4,,,,,,,,,26.811947499998496,,26.789415699997335,26.811947499998496,26.811947499998496,29.84404720000748,space,3.0235309999989113,None,,,,,,,,,,,,,,,,,,,,,,,,,,,,,,,,,,,,,,,,,,,,,,,,,,,,,,,,,,,,,,,,,,,,,,,,345,001,2026-04-02_14h49.37.145,exp_sofc,,2025.2.3,59.38171755831682,2026-04-02 14h49.38.177905 +0200,
,,,,,,,,,,,,,,,,,,,,,,,,,,,,,,,,,,,,,,,,,,,,,,,,,,,,29.845200099996873,29.860468800005037,29.860468800005037,34.251040300005116,ich stimme zu,4.390452300009201,,,,,,,,,,,,,,,,,,,,,,,,,,,,,,,,,,,,,,,,,,,,,,,,,,,,,,,,,,,,,,,,,,345,001,2026-04-02_14h49.37.145,exp_sofc,,2025.2.3,59.38171755831682,2026-04-02 14h49.38.177905 +0200,
,,,,,,,,,,,,,,,,,,,,,,,,,,,,,,,,,,,,,,,,,,,,,,,,,,,,,,,,,,34.25107199999911,34.26782049999747,39.25897560000885,,,,,,,,,,,,,,,,,,,,,,,,,,,,,,,,,,,,,,,,,,,,,,,,,,,,,,,,,,,,,,,345,001,2026-04-02_14h49.37.145,exp_sofc,,2025.2.3,59.38171755831682,2026-04-02 14h49.38.177905 +0200,
,0,0,0,,,,clip_weißt_21_nosub_0,clips/clip_weißt_21_nosub_0.mp4,audios/silence.mp3,weißt,nosub,0,21,NA,NA,10080,Wo stehen die Personen?,am Balkongeländer,am Strand,an einer Bushaltestelle,im Wald,None,,,,,,,,,,,,,0,0,0,1,,,,,39.643619000009494,,,,,,,,,,,,,,,,,,clip_hund_02_sub_1,clips/clip_hund_02_sub_1.mp4,audios/clip_hund_02_sub_1.mp3,audiovisual,sub,False,39.636410699997214,39.643619000009494,39.75925719999941,39.95974610000849,39.95974610000849,39.959698366674516,49.89163800000097,50.129342500003986,49.8923053000035,[],50.00238610000815,50.00242460001027,None,,,,,,,,,,,,,,,,,,,,,,,,,,,,,,,,,,,,,,,,,,,,345,001,2026-04-02_14h49.37.145,exp_sofc,,2025.2.3,59.38171755831682,2026-04-02 14h49.38.177905 +0200,
,1,1,0,,,,clip_weißt_10_nosub_1,clips/clip_weißt_10_nosub_1.mp4,audios/clip_weißt_10_nosub_1.mp3,weißt,nosub,1,10,4280.0,NA,11000,Was macht der Mann?,er greift an den Fernseher,er schaltet das Radio ein,er wirft eine Flasche,er öffnet das Fenster,4,5.6759072999993805,None,,,,,,,,,,,0,1,1,6,,,,,50.129342500003986,,,,,,,,,,,,,,,,,,clip_weißt_21_nosub_0,clips/clip_weißt_21_nosub_0.mp4,audios/silence.mp3,visual,nosub,True,50.1249594999972,50.129342500003986,50.501204900007,50.71408630000951,50.71408630000951,50.71389646667036,51.96584869999788,60.93584190000547,60.81465320001007,[0.4490358000039123],60.928585600006045,66.62224759999663,4,4,60.93584190000547,60.93584190000547,60.93584190000547,5.6759072999993805,None,,,,,,,,,,,,,,,,,,,,,,,,,,,,,,,,,,,,,,345,001,2026-04-02_14h49.37.145,exp_sofc,,2025.2.3,59.38171755831682,2026-04-02 14h49.38.177905 +0200,
,2,2,0,,,,clip_hund_28_nosub_0,clips/clip_hund_28_nosub_0.mp4,audios/clip_hund_28_nosub_0.mp3,hund,nosub,0,28,NA,NA,9840,Was steht auf dem Tisch vor den Personen?,Weinflasche mit Gläsern,Wasser,Bier,Kaffee,None,,,,,,,,,,,,,0,2,2,4,,,,,66.76033930000267,,,,,,,,,,,,,,,,,,clip_hund_06_nosub_0,clips/clip_hund_06_nosub_0.mp4,audios/clip_hund_06_nosub_0.mp3,audiovisual,nosub,False,66.7540660000086,66.76033930000267,67.12840590000269,67.33051120000891,67.33051120000891,67.32907016667401,78.46167210000567,78.46167210000567,78.21819500000856,[],78.32138999999734,78.3214236000058,None,,,,,,,,,,,,,,,,,,,,,,,,,,,,,,,,,,,,,,,,,,,,345,001,2026-04-02_14h49.37.145,exp_sofc,,2025.2.3,59.38171755831682,2026-04-02 14h49.38.177905 +0200,
,3,3,0,,,,clip_weißt_18_nosub_1,clips/clip_weißt_18_nosub_1.mp4,audios/silence.mp3,weißt,nosub,1,18,5680.0,NA,12000,Wie wirken die Personen?,überrascht,wütend,verzweifelt,gelangweilt,None,,,,,,,,,,,,,0,3,3,7,,,,,78.46167210000567,,,,,,,,,,,,,,,,,,clip_weißt_10_nosub_1,clips/clip_weißt_10_nosub_1.mp4,audios/clip_weißt_10_nosub_1.mp3,audiovisual,nosub,False,78.4559414999967,78.46167210000567,78.82452249999915,79.03866820000985,79.02192400000058,79.02175746666423,90.03891889999795,90.28514220000943,90.04063540000061,[0.47744909999892116],90.13991559999704,90.1399686000077,None,,,,,,,,,,,,,,,,,,,,,,,,,,,,,,,,,,,,,,,,,,,,345,001,2026-04-02_14h49.37.145,exp_sofc,,2025.2.3,59.38171755831682,2026-04-02 14h49.38.177905 +0200,
,4,4,0,,,,clip_weißt_05_sub_0,clips/clip_weißt_05_sub_0.mp4,audios/clip_weißt_05_sub_0.mp3,weißt,sub,0,5,NA,NA,9767,Wer trägt die Leiter?,die Frau,der Mann,beide,keiner,None,,,,,,,,,,,,,0,4,4,0,,,,,90.28514220000943,,,,,,,,,,,,,,,,,,clip_weißt_05_sub_0,clips/clip_weißt_05_sub_0.mp4,audios/clip_weißt_05_sub_0.mp3,audiovisual,sub,False,90.27877360000275,90.28514220000943,90.64843500001007,90.84856050000235,90.84856050000235,90.84860446666814,,100.87787039999967,100.6489092999982,[0.7091930000024149],100.75973400000657,100.7598580000049,None,,,,,,,,,,,,,,,,,,,,,,,,,,,,,,,,,,,,,,,,,,,,345,001,2026-04-02_14h49.37.145,exp_sofc,,2025.2.3,59.38171755831682,2026-04-02 14h49.38.177905 +0200,
,5,5,0,,,,clip_hund_26_sub_1,clips/clip_hund_26_sub_1.mp4,audios/silence.mp3,hund,sub,0,26,NA,NA,9333,Wie wirkt die Frau?,amüsiert,hasserfüllt,traurig,ängstlich,2,3.751336600005743,None,,,,,,,,,,,0,5,5,3,,,,,100.87787039999967,,,,,,,,,,,,,,,,,,clip_hund_31_sub_0,clips/clip_hund_31_sub_0.mp4,audios/silence.mp3,visual,sub,True,100.87026779999724,100.87787039999967,101.26506760000484,101.46690470000613,101.46690470000613,101.46499456666449,102.718778200011,110.04432290000841,109.92954330000794,[2.742096899994067],110.03730619999988,113.79968440000084,2,2,110.04432290000841,110.04432290000841,110.04432290000841,3.751336600005743,None,,,,,,,,,,,,,,,,,,,,,,,,,,,,,,,,,,,,,,345,001,2026-04-02_14h49.37.145,exp_sofc,,2025.2.3,59.38171755831682,2026-04-02 14h49.38.177905 +0200,
,6,6,0,,,,clip_hund_31_sub_0,clips/clip_hund_31_sub_0.mp4,audios/silence.mp3,hund,sub,1,31,1966.0,NA,8433,Welche Tageszeit ist es?,abends,morgens,mittags,nachts,1,40.18701159999182,None,,,,,,,,,,,0,6,6,9,,,,,113.9222429000074,,,,,,,,,,,,,,,,,,clip_weißt_18_nosub_1,clips/clip_weißt_18_nosub_1.mp4,audios/silence.mp3,visual,nosub,True,113.91340140000102,113.9222429000074,114.2999298000068,114.50245860000723,114.50245860000723,114.50259546666736,115.75145239999983,126.64171019999776,126.5198914000066,[],126.63490869999805,166.83196310000494,1,4,126.64171019999776,126.64171019999776,126.64171019999776,40.18701159999182,None,,,,,,,,,,,,,,,,,,,,,,,,,,,,,,,,,,,,,,345,001,2026-04-02_14h49.37.145,exp_sofc,,2025.2.3,59.38171755831682,2026-04-02 14h49.38.177905 +0200,
,7,7,0,,,,clip_weißt_09_sub_1,clips/clip_weißt_09_sub_1.mp4,audios/silence.mp3,weißt,sub,1,9,4866.0,NA,9000,Was macht die Frau?,sie wickelt ein Band auf,sie näht,sie strickt,sie faltet Wäsche,None,,,,,,,,,,,,,0,7,7,5,,,,,166.9599969999981,,,,,,,,,,,,,,,,,,clip_hund_25_sub_1,clips/clip_hund_25_sub_1.mp4,audios/silence.mp3,visual,sub,False,166.9533577000111,166.9599969999981,167.33368890000565,167.53311550000217,167.53311550000217,167.53327656667196,168.78489140000602,176.10492720000912,175.8637968999974,[7.0792595999955665],175.96621569999843,175.96624870000232,None,,,,,,,,,,,,,,,,,,,,,,,,,,,,,,,,,,,,,,,,,,,,345,001,2026-04-02_14h49.37.145,exp_sofc,,2025.2.3,59.38171755831682,2026-04-02 14h49.38.177905 +0200,
,8,8,0,,,,clip_hund_06_nosub_0,clips/clip_hund_06_nosub_0.mp4,audios/clip_hund_06_nosub_0.mp3,hund,nosub,0,6,NA,NA,10860,Wie sieht das Studio aus?,unaufgeräumt,sehr ordentlich,komplett leer,stark überfüllt,None,,,,,,,,,,,,,0,8,8,2,,,,,176.10492720000912,,,,,,,,,,,,,,,,,,clip_hund_28_nosub_0,clips/clip_hund_28_nosub_0.mp4,audios/clip_hund_28_nosub_0.mp3,audiovisual,nosub,False,176.09890389999782,176.10492720000912,176.47251610000967,176.6722265999997,176.6722265999997,176.6723387666755,186.73598550001043,186.73598550001043,186.5370804999984,[],186.6255308000109,186.6255661000032,None,,,,,,,,,,,,,,,,,,,,,,,,,,,,,,,,,,,,,,,,,,,,345,001,2026-04-02_14h49.37.145,exp_sofc,,2025.2.3,59.38171755831682,2026-04-02 14h49.38.177905 +0200,
,9,9,0,,,,clip_wurst_09_sub_1,clips/clip_wurst_09_sub_1.mp4,audios/clip_wurst_09_sub_1.mp3,wurst,sub,1,9,3666.0,NA,11267,Wer sind die alten Menschen wahrscheinlich?,Großeltern,Eltern,Geschwister,Nachbarn,3,3.314415499989991,None,,,,,,,,,,,0,9,9,10,,,,,186.73598550001043,,,,,,,,,,,,,,,,,,clip_hund_26_sub_1,clips/clip_hund_26_sub_1.mp4,audios/silence.mp3,visual,sub,True,186.7295121000061,186.73598550001043,187.130192800003,187.33055350001086,187.33055350001086,187.33065996667236,188.58221269999922,196.86910570001055,196.69556300000113,[],196.86464660000638,200.18394529999932,3,3,196.86910570001055,196.86910570001055,196.86910570001055,3.314415499989991,None,,,,,,,,,,,,,,,,,,,,,,,,,,,,,,,,,,,,,,345,001,2026-04-02_14h49.37.145,exp_sofc,,2025.2.3,59.38171755831682,2026-04-02 14h49.38.177905 +0200,
,10,10,0,,,,clip_hund_02_sub_1,clips/clip_hund_02_sub_1.mp4,audios/clip_hund_02_sub_1.mp3,hund,sub,1,2,8300.0,NA,9900,Welche Farbe hat der Pullover der Frau?,grün,schwarz,blau,rot,None,,,,,,,,,,,,,0,10,10,8,,,,,200.2964292000106,,,,,,,,,,,,,,,,,,clip_weißt_09_sub_1,clips/clip_weißt_09_sub_1.mp4,audios/silence.mp3,visual,sub,False,200.2894754000008,200.2964292000106,200.6968377000012,200.8967263000086,200.8967263000086,200.89697686667594,202.14843560000008,210.1451303000067,209.9290861000045,[5.9337456000066595],210.01076580000517,210.0108009000105,None,,,,,,,,,,,,,,,,,,,,,,,,,,,,,,,,,,,,,,,,,,,,345,001,2026-04-02_14h49.37.145,exp_sofc,,2025.2.3,59.38171755831682,2026-04-02 14h49.38.177905 +0200,
,11,11,0,,,,clip_hund_25_sub_1,clips/clip_hund_25_sub_1.mp4,audios/silence.mp3,hund,sub,1,25,5466.0,NA,8300,Mit was essen die Personen?,mit ihren Händen,mit Messer und Gabel,mit Stäbchen,mit einem Löffel,None,,,,,,,,,,,,,0,11,11,11,,,,,210.1451303000067,,,,,,,,,,,,,,,,,,clip_wurst_09_sub_1,clips/clip_wurst_09_sub_1.mp4,audios/clip_wurst_09_sub_1.mp3,audiovisual,sub,False,210.1388602000079,210.1451303000067,210.5112611000077,210.7118491000001,210.7118491000001,210.71285546667448,,222.1162580000091,222.01307200000156,[6.640819299995201],222.10805580001033,222.10813690000214,None,,,,,,,,,,,,,,,,,,,,,,,,,,,,,,,,,,,,,,,,,,,,345,001,2026-04-02_14h49.37.145,exp_sofc,,2025.2.3,59.38171755831682,2026-04-02 14h49.38.177905 +0200,
,,,,,,,,,,,,,,,,,,,,,,,,,,,,,,,,,,,,,,,,,,,,,,,,,,,,,,,,,,,,,,,,,,,,,,,,,,,,,,,,,,,,,,222.10829850001028,222.1162580000091,227.19271670001035,227.10459640000772,,,,,,,,,,,,,,,,,,,,,,,,,,,,,,,,,,345,001,2026-04-02_14h49.37.145,exp_sofc,,2025.2.3,59.38171755831682,2026-04-02 14h49.38.177905 +0200,
,0,0,0,,,,,,,,,,,,,,,,,,,,,,None,None,,,,,,,,,,,,,0,0,0,0,227.19271670001035,,,,,,,,,,,,,,,,,,,,,,,,,,,,,,,,,,,,,,,,,,,,,,,clips/clip_holo_10_nosub_1.mp4,audios/silence.mp3,visual,227.18808960000752,227.61043020000216,227.81145970000944,227.81145970000944,227.81084376667084,229.06366070000513,237.98815180000383,237.77701469999738,[5.949239199995645],237.88064299999678,237.88069000000542,None,237.88075870000466,237.88078680000035,None,,,,,,,,,,,,,,,,345,001,2026-04-02_14h49.37.145,exp_sofc,,2025.2.3,59.38171755831682,2026-04-02 14h49.38.177905 +0200,
,1,0,1,,,,,,,,,,,,,,,,,,,,,,None,None,,,,,,,,,,,,,1,0,1,0,237.98815180000383,,,,,,,,,,,,,,,,,,,,,,,,,,,,,,,,,,,,,,,,,,,,,,,clips/clip_hund_22_sub_1.mp4,audios/silence.mp3,visual,237.9825780000101,238.38801100000273,238.5883729000052,238.5883729000052,238.58813156666682,239.84005450000404,248.81476269999985,248.6044557999994,[8.684179200005019],248.70551050000358,248.70554750000883,None,248.70558629999869,248.70563209999818,None,,,,,,,,,,,,,,,,345,001,2026-04-02_14h49.37.145,exp_sofc,,2025.2.3,59.38171755831682,2026-04-02 14h49.38.177905 +0200,
,2,0,2,,,,,,,,,,,,,,,,,,,,,,None,None,,,,,,,,,,,,,2,0,2,0,248.81476269999985,,,,,,,,,,,,,,,,,,,,,,,,,,,,,,,,,,,,,,,,,,,,,,,clips/clip_hund_27_sub_1.mp4,audios/silence.mp3,visual,248.80893729999661,249.21540320001077,249.41571880000993,249.41571880000993,249.41450926667702,250.6667196000053,259.8855775999982,259.64745160000166,[5.2218409999914],259.7503945000062,259.75043169999844,None,259.75046710000606,259.7504861000052,None,,,,,,,,,,,,,,,,345,001,2026-04-02_14h49.37.145,exp_sofc,,2025.2.3,59.38171755831682,2026-04-02 14h49.38.177905 +0200,
,3,0,3,,,,,,,,,,,,,,,,,,,,,,1,None,4.07417720000376,None,,,,,,,,,,,3,0,3,0,259.8855775999982,,,,,,,,,,,,,,,,,,,,,,,,,,,,,,,,,,,,,,,,,,,,,,,clips/clip_claude_23_sub_0.mp4,audios/clip_claude_23_sub_0.mp3,audiovisual,259.88049820000015,260.2517700000026,260.4522292000038,260.4522292000038,260.4520338666664,272.7145142000081,272.7145142000081,272.6044872000057,[],272.7082739000034,276.8050239000004,1,276.80507300001045,276.80509090000123,None,2,272.7145142000081,272.7145142000081,272.7145142000081,4.07417720000376,None,,,,,,,,,,345,001,2026-04-02_14h49.37.145,exp_sofc,,2025.2.3,59.38171755831682,2026-04-02 14h49.38.177905 +0200,
,4,0,4,,,,,,,,,,,,,,,,,,,,,,1,None,2.755541299993638,None,,,,,,,,,,,4,0,4,0,276.91316710000683,,,,,,,,,,,,,,,,,,,,,,,,,,,,,,,,,,,,,,,,,,,,,,,clips/clip_holo_28_sub_0.mp4,audios/silence.mp3,visual,276.9074118999997,277.3140054000105,277.51428970000416,277.51428970000416,277.5145296666635,278.7667036000057,286.14049309999973,286.0449130000052,[],286.1361565999978,288.90731300000334,1,288.90737510001054,288.9074002999987,None,1,286.14049309999973,286.14049309999973,286.14049309999973,2.755541299993638,None,,,,,,,,,,345,001,2026-04-02_14h49.37.145,exp_sofc,,2025.2.3,59.38171755831682,2026-04-02 14h49.38.177905 +0200,
,5,0,5,,,,,,,,,,,,,,,,,,,,,,1,None,2.8290335000056075,None,,,,,,,,,,,5,0,5,0,289.04747180000413,,,,,,,,,,,,,,,,,,,,,,,,,,,,,,,,,,,,,,,,,,,,,,,clips/clip_lied_06_nosub_1.mp4,audios/clip_lied_06_nosub_1.mp3,audiovisual,289.04154210000706,289.4134791000106,289.6140385000035,289.6140385000035,289.61384866666435,302.2335408000072,302.34127109999827,302.23372650000965,[],302.33464800000365,305.1806490000017,1,305.18070949999674,305.1807351000025,None,1,302.34127109999827,302.34127109999827,302.34127109999827,2.8290335000056075,None,,,,,,,,,,345,001,2026-04-02_14h49.37.145,exp_sofc,,2025.2.3,59.38171755831682,2026-04-02 14h49.38.177905 +0200,
,6,0,6,,,,,,,,,,,,,,,,,,,,,,None,None,,,,,,,,,,,,,6,0,6,0,305.298097699997,,,,,,,,,,,,,,,,,,,,,,,,,,,,,,,,,,,,,,,,,,,,,,,clips/clip_holo_22_nosub_1.mp4,audios/clip_holo_22_nosub_1.mp3,audiovisual,305.29208220000146,305.6814493999991,305.88144029999967,305.88144029999967,305.8814809666694,,315.3135287000041,315.0794239000097,[9.409621599988895],315.18476050000754,315.18479359999765,None,315.1848197000072,315.1848362000019,None,,,,,,,,,,,,,,,,345,001,2026-04-02_14h49.37.145,exp_sofc,,2025.2.3,59.38171755831682,2026-04-02 14h49.38.177905 +0200,
,7,0,7,,,,,,,,,,,,,,,,,,,,,,4,None,3.5938654000055976,None,,,,,,,,,,,7,0,7,0,315.3135287000041,,,,,,,,,,,,,,,,,,,,,,,,,,,,,,,,,,,,,,,,,,,,,,,clips/clip_weißt_13_sub_0.mp4,audios/clip_weißt_13_sub_0.mp3,audiovisual,315.308331799999,315.69677780001075,315.8979694000009,315.8979694000009,315.897951266674,326.8309985000087,326.8309985000087,326.7157806000032,[],326.8247284000099,330.43672840000363,4,330.4367881000071,330.4368140000006,None,2,326.8309985000087,326.8309985000087,326.8309985000087,3.5938654000055976,None,,,,,,,,,,345,001,2026-04-02_14h49.37.145,exp_sofc,,2025.2.3,59.38171755831682,2026-04-02 14h49.38.177905 +0200,
,8,0,8,,,,,,,,,,,,,,,,,,,,,,None,None,,,,,,,,,,,,,8,0,8,0,330.5689216000028,,,,,,,,,,,,,,,,,,,,,,,,,,,,,,,,,,,,,,,,,,,,,,,clips/clip_herz_14_sub_0.mp4,audios/clip_herz_14_sub_0.mp3,audiovisual,330.56477150000865,330.93698949999816,331.1379382000014,331.1379382000014,331.13809146666995,341.67157120000047,341.88960190000944,341.67174890000024,[],341.7689529000054,341.76898809999693,None,341.7690167999972,341.7690331000049,None,,,,,,,,,,,,,,,,345,001,2026-04-02_14h49.37.145,exp_sofc,,2025.2.3,59.38171755831682,2026-04-02 14h49.38.177905 +0200,
,9,0,9,,,,,,,,,,,,,,,,,,,,,,None,None,,,,,,,,,,,,,9,0,9,0,341.88960190000944,,,,,,,,,,,,,,,,,,,,,,,,,,,,,,,,,,,,,,,,,,,,,,,clips/clip_lied_21_sub_2.mp4,audios/clip_lied_21_sub_2.mp3,audiovisual,341.8856153000088,342.27126790001057,342.4727206000098,342.4727206000098,342.471816466674,354.18351030000485,354.18351030000485,353.9897720000008,"[5.210631099995226, 10.616864899988286]",354.08513479999965,354.0851879999973,None,354.08522800001083,354.0852564000088,None,,,,,,,,,,,,,,,,345,001,2026-04-02_14h49.37.145,exp_sofc,,2025.2.3,59.38171755831682,2026-04-02 14h49.38.177905 +0200,
,10,0,10,,,,,,,,,,,,,,,,,,,,,,2,None,3.312828800000716,None,,,,,,,,,,,10,0,10,0,354.18351030000485,,,,,,,,,,,,,,,,,,,,,,,,,,,,,,,,,,,,,,,,,,,,,,,clips/clip_holo_15_nosub_0.mp4,audios/silence.mp3,visual,354.1777395000099,354.59940449999704,354.79946950000885,354.79946950000885,354.79945466666345,356.05128840000543,364.1152426000044,363.99786850000964,[],364.10883399999875,367.43578929999785,2,367.43585449999955,367.43588240000827,None,2,364.1152426000044,364.1152426000044,364.1152426000044,3.312828800000716,None,,,,,,,,,,345,001,2026-04-02_14h49.37.145,exp_sofc,,2025.2.3,59.38171755831682,2026-04-02 14h49.38.177905 +0200,
,11,0,11,,,,,,,,,,,,,,,,,,,,,,None,None,,,,,,,,,,,,,11,0,11,0,367.5640446000034,,,,,,,,,,,,,,,,,,,,,,,,,,,,,,,,,,,,,,,,,,,,,,,clips/clip_claude_12_nosub_0.mp4,audios/clip_claude_12_nosub_0.mp3,audiovisual,367.5589750000072,367.9366715000069,368.1371196000109,368.1371196000109,368.1364941666727,377.3684811999992,377.5815608999983,377.3686746000021,[],377.4697884000052,377.4698219999991,None,377.4698512000032,377.4698675999971,None,,,,,,,,,,,,,,,,345,001,2026-04-02_14h49.37.145,exp_sofc,,2025.2.3,59.38171755831682,2026-04-02 14h49.38.177905 +0200,
,12,0,12,,,,,,,,,,,,,,,,,,,,,,None,None,,,,,,,,,,,,,12,0,12,0,377.5815608999983,,,,,,,,,,,,,,,,,,,,,,,,,,,,,,,,,,,,,,,,,,,,,,,clips/clip_holo_11_sub_2.mp4,audios/silence.mp3,visual,377.5755686000048,377.9811502000084,378.18147090000275,378.18147090000275,378.18114096667364,379.4331840000086,388.0579030000081,387.8477990000101,"[5.798949100004393, 9.26254730000801]",387.94628289999673,387.94631690000824,None,387.9463565000042,387.9463953000086,None,,,,,,,,,,,,,,,,345,001,2026-04-02_14h49.37.145,exp_sofc,,2025.2.3,59.38171755831682,2026-04-02 14h49.38.177905 +0200,
,13,0,13,,,,,,,,,,,,,,,,,,,,,,None,None,,,,,,,,,,,,,13,0,13,0,388.0579030000081,,,,,,,,,,,,,,,,,,,,,,,,,,,,,,,,,,,,,,,,,,,,,,,clips/clip_dampf_06_nosub_2.mp4,audios/clip_dampf_06_nosub_2.mp3,audiovisual,388.05310630000895,388.457963000008,388.65936540000257,388.65936540000257,388.6596322666776,397.689666899998,397.89905000000726,397.68988309999986,[],397.78795720000926,397.78799250000156,None,397.7880279000092,397.78804749999836,None,,,,,,,,,,,,,,,,345,001,2026-04-02_14h49.37.145,exp_sofc,,2025.2.3,59.38171755831682,2026-04-02 14h49.38.177905 +0200,
,14,0,14,,,,,,,,,,,,,,,,,,,,,,None,None,,,,,,,,,,,,,14,0,14,0,397.89905000000726,,,,,,,,,,,,,,,,,,,,,,,,,,,,,,,,,,,,,,,,,,,,,,,clips/clip_holo_12_sub_1.mp4,audios/silence.mp3,visual,397.89340850000735,398.2992212000099,398.49951480000163,398.49951480000163,398.49906136666345,399.75217430001067,408.7586878000002,408.5318383999984,[8.517347199987853],408.6338792000024,408.633914799997,None,408.63396510000166,408.63404900000023,None,,,,,,,,,,,,,,,,345,001,2026-04-02_14h49.37.145,exp_sofc,,2025.2.3,59.38171755831682,2026-04-02 14h49.38.177905 +0200,
,15,0,15,,,,,,,,,,,,,,,,,,,,,,None,None,,,,,,,,,,,,,15,0,15,0,408.7586878000002,,,,,,,,,,,,,,,,,,,,,,,,,,,,,,,,,,,,,,,,,,,,,,,clips/clip_hund_07_sub_1.mp4,audios/clip_hund_07_sub_1.mp3,audiovisual,408.753832900009,409.1326712000009,409.3325470999989,409.34951460000593,409.34921376666557,420.9674401000084,421.17679620000126,420.9676153000037,[6.57499999999709],421.0540577000065,421.0541213000106,None,421.05416910001077,421.05418700000155,None,,,,,,,,,,,,,,,,345,001,2026-04-02_14h49.37.145,exp_sofc,,2025.2.3,59.38171755831682,2026-04-02 14h49.38.177905 +0200,
,16,0,16,,,,,,,,,,,,,,,,,,,,,,3,None,3.18980379999266,None,,,,,,,,,,,16,0,16,0,421.17679620000126,,,,,,,,,,,,,,,,,,,,,,,,,,,,,,,,,,,,,,,,,,,,,,,clips/clip_wurst_06_nosub_2.mp4,audios/clip_wurst_06_nosub_2.mp3,audiovisual,421.1728068000084,421.56188290000136,421.76167500000156,421.76167500000156,421.76143396666544,432.8629740000033,432.9582972000062,432.8631504000077,"[2.785317699992447, 8.287324799995986]",432.9525779000105,436.15959999999905,3,436.1596514999983,436.15967049999745,None,3,432.9582972000062,432.9582972000062,432.9582972000062,3.18980379999266,None,,,,,,,,,,345,001,2026-04-02_14h49.37.145,exp_sofc,,2025.2.3,59.38171755831682,2026-04-02 14h49.38.177905 +0200,
,17,0,17,,,,,,,,,,,,,,,,,,,,,,None,None,,,,,,,,,,,,,17,0,17,0,436.29606220001006,,,,,,,,,,,,,,,,,,,,,,,,,,,,,,,,,,,,,,,,,,,,,,,clips/clip_weißt_23_sub_1.mp4,audios/clip_weißt_23_sub_1.mp3,audiovisual,436.2914090999984,436.66383510000014,436.8646061000036,436.8646061000036,436.86492056667726,448.2813435999997,448.50172480000765,448.2814784000075,[8.504133100010222],448.372841400007,448.37287720000313,None,448.3729081000056,448.372924299998,None,,,,,,,,,,,,,,,,345,001,2026-04-02_14h49.37.145,exp_sofc,,2025.2.3,59.38171755831682,2026-04-02 14h49.38.177905 +0200,
,18,0,18,,,,,,,,,,,,,,,,,,,,,,None,None,,,,,,,,,,,,,18,0,18,0,448.50172480000765,,,,,,,,,,,,,,,,,,,,,,,,,,,,,,,,,,,,,,,,,,,,,,,clips/clip_wurst_07_sub_0.mp4,audios/clip_wurst_07_sub_0.mp3,audiovisual,448.49632830001065,448.88241859999835,449.0832278000016,449.0832278000016,449.0829028666669,459.09778700000606,459.3234908000013,459.09794240001065,[],459.19628580000426,459.1963364999974,None,459.1963736000034,459.19639050000114,None,,,,,,,,,,,,,,,,345,001,2026-04-02_14h49.37.145,exp_sofc,,2025.2.3,59.38171755831682,2026-04-02 14h49.38.177905 +0200,
,19,0,19,,,,,,,,,,,,,,,,,,,,,,None,None,,,,,,,,,,,,,19,0,19,0,459.3234908000013,,,,,,,,,,,,,,,,,,,,,,,,,,,,,,,,,,,,,,,,,,,,,,,clips/clip_claude_02_nosub_1.mp4,audios/clip_claude_02_nosub_1.mp3,audiovisual,459.31800510000903,459.69912760000443,459.90011329999834,459.90011329999834,459.9000031666694,,469.92446100000234,469.69915760000004,[0.2833214000129374],469.7913650999981,469.79140110001026,None,469.7914382000017,469.7914620000083,None,,,,,,,,,,,,,,,,345,001,2026-04-02_14h49.37.145,exp_sofc,,2025.2.3,59.38171755831682,2026-04-02 14h49.38.177905 +0200,
,20,0,20,,,,,,,,,,,,,,,,,,,,,,None,None,,,,,,,,,,,,,20,0,20,0,469.92446100000234,,,,,,,,,,,,,,,,,,,,,,,,,,,,,,,,,,,,,,,,,,,,,,,clips/clip_herz_05_sub_0.mp4,audios/clip_herz_05_sub_0.mp3,audiovisual,469.9202646000049,470.29893170000287,470.49984920000134,470.49984920000134,470.49983716667725,,481.03123540000524,480.7989988000045,"[6.197701900004176, 7.694389200012665]",480.90565539999807,480.9056869000051,None,480.9057158000069,480.9057349000068,None,,,,,,,,,,,,,,,,345,001,2026-04-02_14h49.37.145,exp_sofc,,2025.2.3,59.38171755831682,2026-04-02 14h49.38.177905 +0200,
,21,0,21,,,,,,,,,,,,,,,,,,,,,,4,None,3.3282751999940956,None,,,,,,,,,,,21,0,21,0,481.03123540000524,,,,,,,,,,,,,,,,,,,,,,,,,,,,,,,,,,,,,,,,,,,,,,,clips/clip_wurst_19_sub_0.mp4,audios/silence.mp3,visual,481.02556090000144,481.41650820001087,481.61653850000584,481.61653850000584,481.61635366667565,482.8685198000021,492.76105169999937,492.6338214999996,[],492.7557672999974,496.1058080000075,4,496.105867899998,496.10589200000686,None,4,492.76105169999937,492.76105169999937,492.76105169999937,3.3282751999940956,None,,,,,,,,,,345,001,2026-04-02_14h49.37.145,exp_sofc,,2025.2.3,59.38171755831682,2026-04-02 14h49.38.177905 +0200,
,22,0,22,,,,,,,,,,,,,,,,,,,,,,None,None,,,,,,,,,,,,,22,0,22,0,496.23688029999903,,,,,,,,,,,,,,,,,,,,,,,,,,,,,,,,,,,,,,,,,,,,,,,clips/clip_holo_03_sub_1.mp4,audios/clip_holo_03_sub_1.mp3,audiovisual,496.23155670000415,496.6071779000049,496.80708030000096,496.80708030000096,496.80674896667574,506.3386102000077,506.53528680000454,506.3387833000015,[7.4555899999977555],506.43850240000756,506.438538900009,None,506.4385681999993,506.43858460000774,None,,,,,,,,,,,,,,,,345,001,2026-04-02_14h49.37.145,exp_sofc,,2025.2.3,59.38171755831682,2026-04-02 14h49.38.177905 +0200,
,23,0,23,,,,,,,,,,,,,,,,,,,,,,3,None,3.5523480999981984,None,,,,,,,,,,,23,0,23,0,506.53528680000454,,,,,,,,,,,,,,,,,,,,,,,,,,,,,,,,,,,,,,,,,,,,,,,clips/clip_herz_08_nosub_0.mp4,audios/silence.mp3,visual,506.5296267000085,506.94773910001095,507.14795500000764,507.14795500000764,507.1478699666661,508.4008620000095,519.2656395000085,519.1671852,"[5.4577682000090135, 9.461036300010164]",519.2600266000081,522.8309808000049,3,522.8310416000022,522.8310660999996,None,3,519.2656395000085,519.2656395000085,519.2656395000085,3.5523480999981984,None,,,,,,,,,,345,001,2026-04-02_14h49.37.145,exp_sofc,,2025.2.3,59.38171755831682,2026-04-02 14h49.38.177905 +0200,
,24,0,24,,,,,,,,,,,,,,,,,,,,,,None,None,,,,,,,,,,,,,24,0,24,0,522.9458161000075,,,,,,,,,,,,,,,,,,,,,,,,,,,,,,,,,,,,,,,,,,,,,,,clips/clip_hund_21_nosub_1.mp4,audios/silence.mp3,visual,522.9396326999995,523.3460961000092,523.5460275000078,523.5460275000078,523.5462562666692,524.7980697000021,533.7865709000034,533.5792748000094,[6.4999286999955075],533.6713293000066,533.6713641000097,None,533.6713929999969,533.6714129000029,None,,,,,,,,,,,,,,,,345,001,2026-04-02_14h49.37.145,exp_sofc,,2025.2.3,59.38171755831682,2026-04-02 14h49.38.177905 +0200,
,25,0,25,,,,,,,,,,,,,,,,,,,,,,None,None,,,,,,,,,,,,,25,0,25,0,533.7865709000034,,,,,,,,,,,,,,,,,,,,,,,,,,,,,,,,,,,,,,,,,,,,,,,clips/clip_claude_26_nosub_0.mp4,audios/silence.mp3,visual,533.7807426000072,534.1713274000067,534.3711519000062,534.3711519000062,534.3708854666659,535.6228639000037,545.46357420001,545.2891630000086,[4.21902940000291],545.3723916000017,545.3724301000038,None,545.372472300005,545.3725050000066,None,,,,,,,,,,,,,,,,345,001,2026-04-02_14h49.37.145,exp_sofc,,2025.2.3,59.38171755831682,2026-04-02 14h49.38.177905 +0200,
,26,0,26,,,,,,,,,,,,,,,,,,,,,,None,None,,,,,,,,,,,,,26,0,26,0,545.46357420001,,,,,,,,,,,,,,,,,,,,,,,,,,,,,,,,,,,,,,,,,,,,,,,clips/clip_lied_03_nosub_1.mp4,audios/silence.mp3,visual,545.457951999997,545.8722417000099,546.072685799998,546.072685799998,546.0726393666739,547.3244135999994,556.8063665000082,556.6062089000043,[4.486542800004827],556.6952267000015,556.6952994000021,None,556.6953483999969,556.6953702000028,None,,,,,,,,,,,,,,,,345,001,2026-04-02_14h49.37.145,exp_sofc,,2025.2.3,59.38171755831682,2026-04-02 14h49.38.177905 +0200,
,27,0,27,,,,,,,,,,,,,,,,,,,,,,None,None,,,,,,,,,,,,,27,0,27,0,556.8063665000082,,,,,,,,,,,,,,,,,,,,,,,,,,,,,,,,,,,,,,,,,,,,,,,clips/clip_lied_19_nosub_1.mp4,audios/silence.mp3,visual,556.8007698000001,557.1990446999989,557.3999726000038,557.3999726000038,557.3990133666705,558.6504913000099,568.2945285000023,568.0984267000022,[5.066349699991406],568.1945510000078,568.194596500005,None,568.1946450000105,568.1946754000091,None,,,,,,,,,,,,,,,,345,001,2026-04-02_14h49.37.145,exp_sofc,,2025.2.3,59.38171755831682,2026-04-02 14h49.38.177905 +0200,
,28,0,28,,,,,,,,,,,,,,,,,,,,,,None,None,,,,,,,,,,,,,28,0,28,0,568.2945285000023,,,,,,,,,,,,,,,,,,,,,,,,,,,,,,,,,,,,,,,,,,,,,,,clips/clip_claude_15_nosub_0.mp4,audios/silence.mp3,visual,568.288395800002,568.707699400009,568.9084837999981,568.9084837999981,568.9086011666698,570.1609362000017,581.1505357999995,580.927984000009,[],581.0249702000001,581.0250105000014,None,581.0250494000065,581.0250987000036,None,,,,,,,,,,,,,,,,345,001,2026-04-02_14h49.37.145,exp_sofc,,2025.2.3,59.38171755831682,2026-04-02 14h49.38.177905 +0200,
,29,0,29,,,,,,,,,,,,,,,,,,,,,,3,None,3.578134900002624,None,,,,,,,,,,,29,0,29,0,581.1505357999995,,,,,,,,,,,,,,,,,,,,,,,,,,,,,,,,,,,,,,,,,,,,,,,clips/clip_claude_25_nosub_0.mp4,audios/clip_claude_25_nosub_0.mp3,audiovisual,581.1461997000006,581.5276215000049,581.7281518000091,581.7281518000091,581.7280819666669,,592.0306416000094,591.927620500006,[],592.0248614000011,595.6248040000064,3,595.624864700003,595.6248902000079,None,4,592.0306416000094,592.0306416000094,592.0306416000094,3.578134900002624,None,,,,,,,,,,345,001,2026-04-02_14h49.37.145,exp_sofc,,2025.2.3,59.38171755831682,2026-04-02 14h49.38.177905 +0200,
,30,0,30,,,,,,,,,,,,,,,,,,,,,,None,None,,,,,,,,,,,,,30,0,30,0,595.765682600002,,,,,,,,,,,,,,,,,,,,,,,,,,,,,,,,,,,,,,,,,,,,,,,clips/clip_dampf_05_sub_2.mp4,audios/clip_dampf_05_sub_2.mp3,audiovisual,595.7600250999967,596.1320511000085,596.3324872000085,596.3324872000085,596.3321188666634,,605.2295413000102,605.0364113000105,[8.787808499997482],605.1230701000022,605.1231136999995,None,605.1231567000068,605.1231765999983,None,,,,,,,,,,,,,,,,345,001,2026-04-02_14h49.37.145,exp_sofc,,2025.2.3,59.38171755831682,2026-04-02 14h49.38.177905 +0200,
,31,0,31,,,,,,,,,,,,,,,,,,,,,,2,None,5.405893999995897,None,,,,,,,,,,,31,0,31,0,605.2295413000102,,,,,,,,,,,,,,,,,,,,,,,,,,,,,,,,,,,,,,,,,,,,,,,clips/clip_weißt_15_nosub_1.mp4,audios/silence.mp3,visual,605.2238567000022,605.6386494000035,605.8388331000024,605.8225130000064,605.822259466677,607.074171500004,616.8402855000022,616.7408708000003,[6.941189899996971],616.8351874000073,622.2561482000019,2,622.2562261999992,622.2562502000073,None,2,616.8402855000022,616.8402855000022,616.8402855000022,5.405893999995897,None,,,,,,,,,,345,001,2026-04-02_14h49.37.145,exp_sofc,,2025.2.3,59.38171755831682,2026-04-02 14h49.38.177905 +0200,
,32,0,32,,,,,,,,,,,,,,,,,,,,,,2,None,2.973822600004496,None,,,,,,,,,,,32,0,32,0,622.365392599997,,,,,,,,,,,,,,,,,,,,,,,,,,,,,,,,,,,,,,,,,,,,,,,clips/clip_holo_01_nosub_1.mp4,audios/silence.mp3,visual,622.3592467999988,622.7650536000001,622.9677456000063,622.9677456000063,622.9653360666746,624.217570000008,632.2638489000092,632.163172600005,[3.9448308999999426],632.2586501000042,635.2432172999979,2,635.2432673000003,635.2432843999995,None,2,632.2638489000092,632.2638489000092,632.2638489000092,2.973822600004496,None,,,,,,,,,,345,001,2026-04-02_14h49.37.145,exp_sofc,,2025.2.3,59.38171755831682,2026-04-02 14h49.38.177905 +0200,
,33,0,33,,,,,,,,,,,,,,,,,,,,,,None,None,,,,,,,,,,,,,33,0,33,0,635.3684339000029,,,,,,,,,,,,,,,,,,,,,,,,,,,,,,,,,,,,,,,,,,,,,,,clips/clip_hund_12_sub_1.mp4,audios/clip_hund_12_sub_1.mp3,audiovisual,635.3638456000044,635.7443224000017,635.9443720999989,635.9443720999989,635.9438295666662,647.3569279000076,647.3569279000076,647.1617025000014,[10.038254700004472],647.2467053,647.2467403000046,None,647.2467700999987,647.2467872999987,None,,,,,,,,,,,,,,,,345,001,2026-04-02_14h49.37.145,exp_sofc,,2025.2.3,59.38171755831682,2026-04-02 14h49.38.177905 +0200,
,34,0,34,,,,,,,,,,,,,,,,,,,,,,None,None,,,,,,,,,,,,,34,0,34,0,647.3569279000076,,,,,,,,,,,,,,,,,,,,,,,,,,,,,,,,,,,,,,,,,,,,,,,clips/clip_lied_12_sub_0.mp4,audios/clip_lied_12_sub_0.mp3,audiovisual,647.3516072000057,647.7543283999985,647.9545297000004,647.9545297000004,647.9546195666665,656.9853606000106,657.2118387000082,656.9855394000042,[],657.0890830999997,657.0891302000091,None,657.0891718000057,657.0892011999968,None,,,,,,,,,,,,,,,,345,001,2026-04-02_14h49.37.145,exp_sofc,,2025.2.3,59.38171755831682,2026-04-02 14h49.38.177905 +0200,
,35,0,35,,,,,,,,,,,,,,,,,,,,,,None,None,,,,,,,,,,,,,35,0,35,0,657.2118387000082,,,,,,,,,,,,,,,,,,,,,,,,,,,,,,,,,,,,,,,,,,,,,,,clips/clip_claude_13_sub_0.mp4,audios/clip_claude_13_sub_0.mp3,audiovisual,657.2078602999973,657.6027357999992,657.8033063000039,657.8033063000039,657.8029112666738,667.0338601999974,667.259000200007,667.0341018000036,[],667.1428927000088,667.1429309000087,None,667.1429797000019,667.1430268999975,None,,,,,,,,,,,,,,,,345,001,2026-04-02_14h49.37.145,exp_sofc,,2025.2.3,59.38171755831682,2026-04-02 14h49.38.177905 +0200,
,36,0,36,,,,,,,,,,,,,,,,,,,,,,None,None,,,,,,,,,,,,,36,0,36,0,667.259000200007,,,,,,,,,,,,,,,,,,,,,,,,,,,,,,,,,,,,,,,,,,,,,,,clips/clip_hund_30_nosub_0.mp4,audios/silence.mp3,visual,667.2531933999999,667.6518942999974,667.8521963000094,667.8521963000094,667.8523222666738,669.1038203000062,680.1029582000047,679.870928400007,[],679.9808241999999,679.9809040999971,None,679.9809556999971,679.9809793000022,None,,,,,,,,,,,,,,,,345,001,2026-04-02_14h49.37.145,exp_sofc,,2025.2.3,59.38171755831682,2026-04-02 14h49.38.177905 +0200,
,37,0,37,,,,,,,,,,,,,,,,,,,,,,None,None,,,,,,,,,,,,,37,0,37,0,680.1029582000047,,,,,,,,,,,,,,,,,,,,,,,,,,,,,,,,,,,,,,,,,,,,,,,clips/clip_wurst_11_nosub_0.mp4,audios/clip_wurst_11_nosub_0.mp3,audiovisual,680.0982666000054,680.4882958000089,680.6889289000101,680.6889289000101,680.688918066666,692.708232200006,692.889920200003,692.7084073000005,[],692.7935678000067,692.7936206000013,None,692.7936592000042,692.7936766000057,None,,,,,,,,,,,,,,,,345,001,2026-04-02_14h49.37.145,exp_sofc,,2025.2.3,59.38171755831682,2026-04-02 14h49.38.177905 +0200,
,38,0,38,,,,,,,,,,,,,,,,,,,,,,4,None,2.6087828000017907,None,,,,,,,,,,,38,0,38,0,692.889920200003,,,,,,,,,,,,,,,,,,,,,,,,,,,,,,,,,,,,,,,,,,,,,,,clips/clip_holo_02_sub_2.mp4,audios/silence.mp3,visual,692.8841891000047,693.3083505000104,693.5093299,693.5093299,693.5084897666713,694.7606572000077,704.7978588999977,704.692592899999,"[4.110401000012644, 8.200567100007902]",704.7930742000026,707.4229796,4,707.4230303000077,707.4230490000045,None,4,704.7978588999977,704.7978588999977,704.7978588999977,2.6087828000017907,None,,,,,,,,,,345,001,2026-04-02_14h49.37.145,exp_sofc,,2025.2.3,59.38171755831682,2026-04-02 14h49.38.177905 +0200,
,39,0,39,,,,,,,,,,,,,,,,,,,,,,None,None,,,,,,,,,,,,,39,0,39,0,707.5347507999977,,,,,,,,,,,,,,,,,,,,,,,,,,,,,,,,,,,,,,,,,,,,,,,clips/clip_wurst_25_sub_1.mp4,audios/clip_wurst_25_sub_1.mp3,audiovisual,707.5298010999977,707.9348384000041,708.1352152000036,708.1352152000036,708.134728366673,719.3523845000018,719.5489396000048,719.3525601000001,[],719.4387834000081,719.4388352000096,None,719.4388791000092,719.4389088000025,None,,,,,,,,,,,,,,,,345,001,2026-04-02_14h49.37.145,exp_sofc,,2025.2.3,59.38171755831682,2026-04-02 14h49.38.177905 +0200,
,40,0,40,,,,,,,,,,,,,,,,,,,,,,None,None,,,,,,,,,,,,,40,0,40,0,719.5489396000048,,,,,,,,,,,,,,,,,,,,,,,,,,,,,,,,,,,,,,,,,,,,,,,clips/clip_holo_18_nosub_0.mp4,audios/silence.mp3,visual,719.5429533999995,719.9448899999988,720.1460341000056,720.1460341000056,720.1456742666671,721.3974332000071,732.219330500011,732.014660300003,"[6.42290759999014, 8.785280999989482]",732.1067627000011,732.1068076000083,None,732.1068462999974,732.1068633999967,None,,,,,,,,,,,,,,,,345,001,2026-04-02_14h49.37.145,exp_sofc,,2025.2.3,59.38171755831682,2026-04-02 14h49.38.177905 +0200,
,41,0,41,,,,,,,,,,,,,,,,,,,,,,2,None,3.0484337000089,None,,,,,,,,,,,41,0,41,0,732.219330500011,,,,,,,,,,,,,,,,,,,,,,,,,,,,,,,,,,,,,,,,,,,,,,,clips/clip_claude_10_nosub_0.mp4,audios/silence.mp3,visual,732.2132199000043,732.6072750000021,732.8072818000073,732.8072818000073,732.8063661666713,734.0586686000024,744.1460552000062,744.0263704000099,[],744.1385177000047,747.1960897000099,2,747.196137100007,747.1961558000039,None,3,744.1460552000062,744.1460552000062,744.1460552000062,3.0484337000089,None,,,,,,,,,,345,001,2026-04-02_14h49.37.145,exp_sofc,,2025.2.3,59.38171755831682,2026-04-02 14h49.38.177905 +0200,
,42,0,42,,,,,,,,,,,,,,,,,,,,,,None,None,,,,,,,,,,,,,42,0,42,0,747.2924137000082,,,,,,,,,,,,,,,,,,,,,,,,,,,,,,,,,,,,,,,,,,,,,,,clips/clip_wurst_36_sub_0.mp4,audios/silence.mp3,visual,747.2866857000045,747.7050949999975,747.9050614000007,747.9050614000007,747.9049692666633,749.1569304000004,757.9718639000057,757.770407700009,[],757.8649907000072,757.865023899998,None,757.865051300003,757.8650703000021,None,,,,,,,,,,,,,,,,345,001,2026-04-02_14h49.37.145,exp_sofc,,2025.2.3,59.38171755831682,2026-04-02 14h49.38.177905 +0200,
,43,0,43,,,,,,,,,,,,,,,,,,,,,,None,None,,,,,,,,,,,,,43,0,43,0,757.9718639000057,,,,,,,,,,,,,,,,,,,,,,,,,,,,,,,,,,,,,,,,,,,,,,,clips/clip_hund_13_nosub_1.mp4,audios/silence.mp3,visual,757.9662913000066,758.3797161999973,758.5810364000063,758.5810364000063,758.5802683666736,759.8330608000106,770.5794156000047,770.3494903000101,[5.9917549999954645],770.4580789000029,770.458117400005,None,770.4581505000097,770.4581672000058,None,,,,,,,,,,,,,,,,345,001,2026-04-02_14h49.37.145,exp_sofc,,2025.2.3,59.38171755831682,2026-04-02 14h49.38.177905 +0200,
,44,0,44,,,,,,,,,,,,,,,,,,,,,,None,None,,,,,,,,,,,,,44,0,44,0,770.5794156000047,,,,,,,,,,,,,,,,,,,,,,,,,,,,,,,,,,,,,,,,,,,,,,,clips/clip_claude_04_nosub_2.mp4,audios/clip_claude_04_nosub_2.mp3,audiovisual,770.5741882000002,770.9663912000105,771.1671063000103,771.1671063000103,771.1672284666749,780.1977177000081,780.406667800009,780.1978835000045,[8.525462499994319],780.3030364000006,780.3030847000045,None,780.3031162999978,780.3031330000085,None,,,,,,,,,,,,,,,,345,001,2026-04-02_14h49.37.145,exp_sofc,,2025.2.3,59.38171755831682,2026-04-02 14h49.38.177905 +0200,
,45,0,45,,,,,,,,,,,,,,,,,,,,,,None,None,,,,,,,,,,,,,45,0,45,0,780.406667800009,,,,,,,,,,,,,,,,,,,,,,,,,,,,,,,,,,,,,,,,,,,,,,,clips/clip_claude_09_nosub_2.mp4,audios/silence.mp3,visual,780.4021420000063,780.8076912000106,781.0080962000065,781.0080962000065,781.0079028666698,782.2598473999969,791.4584937000036,791.2418782000022,"[4.035477600002196, 8.816214400008903]",791.3330769000022,791.3331311000074,None,791.3331659999967,791.3331835999998,None,,,,,,,,,,,,,,,,345,001,2026-04-02_14h49.37.145,exp_sofc,,2025.2.3,59.38171755831682,2026-04-02 14h49.38.177905 +0200,
,46,0,46,,,,,,,,,,,,,,,,,,,,,,None,None,,,,,,,,,,,,,46,0,46,0,791.4584937000036,,,,,,,,,,,,,,,,,,,,,,,,,,,,,,,,,,,,,,,,,,,,,,,clips/clip_wurst_33_nosub_0.mp4,audios/clip_wurst_33_nosub_0.mp3,audiovisual,791.4532640999969,791.8420258999977,792.0417836999986,792.0417836999986,792.0418646666697,801.7739593000006,801.9584632000042,801.7741444999992,[],801.8594381000003,801.8594752000063,None,801.859515300006,801.859532500006,None,,,,,,,,,,,,,,,,345,001,2026-04-02_14h49.37.145,exp_sofc,,2025.2.3,59.38171755831682,2026-04-02 14h49.38.177905 +0200,
,47,0,47,,,,,,,,,,,,,,,,,,,,,,3,None,4.304141399989021,None,,,,,,,,,,,47,0,47,0,801.9584632000042,,,,,,,,,,,,,,,,,,,,,,,,,,,,,,,,,,,,,,,,,,,,,,,clips/clip_hund_29_sub_0.mp4,audios/silence.mp3,visual,801.95276130001,802.376196600002,802.5775999000034,802.5775999000034,802.5756585666716,803.8279536000045,814.1038165000064,813.9932495000103,[10.63353669999924],814.0971653000015,818.4101410000003,3,818.4101934000064,818.4102129000094,None,3,814.1038165000064,814.1038165000064,814.1038165000064,4.304141399989021,None,,,,,,,,,,345,001,2026-04-02_14h49.37.145,exp_sofc,,2025.2.3,59.38171755831682,2026-04-02 14h49.38.177905 +0200,
,48,0,48,,,,,,,,,,,,,,,,,,,,,,None,None,,,,,,,,,,,,,48,0,48,0,818.5365215000056,,,,,,,,,,,,,,,,,,,,,,,,,,,,,,,,,,,,,,,,,,,,,,,clips/clip_claude_20_sub_1.mp4,audios/silence.mp3,visual,818.5303868000046,818.9102980000025,819.1109485000052,819.1109485000052,819.1107542666762,820.3624942000024,831.3615066000057,831.1310055000067,[6.719641900010174],831.247617400004,831.2476558000053,None,831.24768700001,831.2477043000108,None,,,,,,,,,,,,,,,,345,001,2026-04-02_14h49.37.145,exp_sofc,,2025.2.3,59.38171755831682,2026-04-02 14h49.38.177905 +0200,
,49,0,49,,,,,,,,,,,,,,,,,,,,,,None,None,,,,,,,,,,,,,49,0,49,0,831.3615066000057,,,,,,,,,,,,,,,,,,,,,,,,,,,,,,,,,,,,,,,,,,,,,,,clips/clip_herz_06_nosub_2.mp4,audios/clip_herz_06_nosub_2.mp3,audiovisual,831.3578114999982,831.746914000003,831.9474479000055,831.9474479000055,831.9472371666673,842.7571142000088,842.7571142000088,842.5308397000044,"[4.867178500004229, 8.074729300002218]",842.6260426000081,842.6261097000097,None,842.6261520999979,842.626176100006,None,,,,,,,,,,,,,,,,345,001,2026-04-02_14h49.37.145,exp_sofc,,2025.2.3,59.38171755831682,2026-04-02 14h49.38.177905 +0200,
,50,0,50,,,,,,,,,,,,,,,,,,,,,,None,None,,,,,,,,,,,,,50,0,50,0,842.7571142000088,,,,,,,,,,,,,,,,,,,,,,,,,,,,,,,,,,,,,,,,,,,,,,,clips/clip_claude_21_nosub_1.mp4,audios/clip_claude_21_nosub_1.mp3,audiovisual,842.7522460000037,843.1313540999981,843.3319897000038,843.3319897000038,843.3318259666742,855.6017386000021,855.829608400003,855.6018814999989,[9.728996099991491],855.7047240000102,855.7047596000048,None,855.7048007999983,855.7048335,None,,,,,,,,,,,,,,,,345,001,2026-04-02_14h49.37.145,exp_sofc,,2025.2.3,59.38171755831682,2026-04-02 14h49.38.177905 +0200,
,51,0,51,,,,,,,,,,,,,,,,,,,,,,None,None,,,,,,,,,,,,,51,0,51,0,855.829608400003,,,,,,,,,,,,,,,,,,,,,,,,,,,,,,,,,,,,,,,,,,,,,,,clips/clip_dampf_04_sub_1.mp4,audios/clip_dampf_04_sub_1.mp3,audiovisual,855.824289199998,856.2183424000104,856.4197124000057,856.4197124000057,856.4194100666684,866.0512851000094,866.2687262000109,866.0515230000019,[4.992716099994141],866.1521540000103,866.1521912000026,None,866.1522344999976,866.1522880999983,None,,,,,,,,,,,,,,,,345,001,2026-04-02_14h49.37.145,exp_sofc,,2025.2.3,59.38171755831682,2026-04-02 14h49.38.177905 +0200,
,52,0,52,,,,,,,,,,,,,,,,,,,,,,None,None,,,,,,,,,,,,,52,0,52,0,866.2687262000109,,,,,,,,,,,,,,,,,,,,,,,,,,,,,,,,,,,,,,,,,,,,,,,clips/clip_wurst_14_nosub_1.mp4,audios/clip_wurst_14_nosub_1.mp3,audiovisual,866.2637666000082,866.6685024000035,866.8685840000107,866.8523799000104,866.852229766668,876.8842874999973,877.0938892999984,876.8844653999986,[7.75647829999798],876.9857057000045,876.985769699997,None,876.9858224000054,876.9858556000108,None,,,,,,,,,,,,,,,,345,001,2026-04-02_14h49.37.145,exp_sofc,,2025.2.3,59.38171755831682,2026-04-02 14h49.38.177905 +0200,
,53,0,53,,,,,,,,,,,,,,,,,,,,,,None,None,,,,,,,,,,,,,53,0,53,0,877.0938892999984,,,,,,,,,,,,,,,,,,,,,,,,,,,,,,,,,,,,,,,,,,,,,,,clips/clip_weißt_06_nosub_0.mp4,audios/silence.mp3,visual,877.0881238000002,877.4937858000048,877.6948378000088,877.6948378000088,877.6945880666647,878.9458650000015,888.2573413000064,888.0266716000042,[5.650312600002508],888.1288017000043,888.1288869999989,None,888.1289322000084,888.1289517999976,None,,,,,,,,,,,,,,,,345,001,2026-04-02_14h49.37.145,exp_sofc,,2025.2.3,59.38171755831682,2026-04-02 14h49.38.177905 +0200,
,54,0,54,,,,,,,,,,,,,,,,,,,,,,None,None,,,,,,,,,,,,,54,0,54,0,888.2573413000064,,,,,,,,,,,,,,,,,,,,,,,,,,,,,,,,,,,,,,,,,,,,,,,clips/clip_hund_14_sub_2.mp4,audios/clip_hund_14_sub_2.mp3,audiovisual,888.2526034000039,888.644441299999,888.8449474000081,888.8449474000081,888.844465966675,898.9597197999974,898.9597197999974,898.7491273000051,[],898.8411796,898.8412318000046,None,898.8412697000022,898.8412881999975,None,,,,,,,,,,,,,,,,345,001,2026-04-02_14h49.37.145,exp_sofc,,2025.2.3,59.38171755831682,2026-04-02 14h49.38.177905 +0200,
,55,0,55,,,,,,,,,,,,,,,,,,,,,,None,None,,,,,,,,,,,,,55,0,55,0,898.9597197999974,,,,,,,,,,,,,,,,,,,,,,,,,,,,,,,,,,,,,,,,,,,,,,,clips/clip_lied_04_sub_0.mp4,audios/clip_lied_04_sub_0.mp3,audiovisual,898.9551592000062,899.3432597000065,899.5440917000087,899.5440917000087,899.5438136666673,,910.7362594000006,910.5280610000045,[],910.6256045000046,910.6256401999999,None,910.6256749000022,910.625709400003,None,,,,,,,,,,,,,,,,345,001,2026-04-02_14h49.37.145,exp_sofc,,2025.2.3,59.38171755831682,2026-04-02 14h49.38.177905 +0200,
,56,0,56,,,,,,,,,,,,,,,,,,,,,,None,None,,,,,,,,,,,,,56,0,56,0,910.7362594000006,,,,,,,,,,,,,,,,,,,,,,,,,,,,,,,,,,,,,,,,,,,,,,,clips/clip_claude_17_nosub_1.mp4,audios/silence.mp3,visual,910.7304576000024,911.1363599000033,911.337303200009,911.337303200009,911.3368618666757,912.5889538000047,923.0486469000025,922.8551848000061,[10.336659799999325],922.9495524000085,922.9496197999979,None,922.9496846000111,922.9497135999991,None,,,,,,,,,,,,,,,,345,001,2026-04-02_14h49.37.145,exp_sofc,,2025.2.3,59.38171755831682,2026-04-02 14h49.38.177905 +0200,
,57,0,57,,,,,,,,,,,,,,,,,,,,,,None,None,,,,,,,,,,,,,57,0,57,0,923.0486469000025,,,,,,,,,,,,,,,,,,,,,,,,,,,,,,,,,,,,,,,,,,,,,,,clips/clip_wurst_22_nosub_0.mp4,audios/silence.mp3,visual,923.0427722000022,923.4645463000052,923.6662123999995,923.6662123999995,923.6642900666668,924.916590400011,935.5801214000094,935.3667529000086,[],935.4563726000051,935.4564603000035,None,935.4565224999969,935.4565584000084,None,,,,,,,,,,,,,,,,345,001,2026-04-02_14h49.37.145,exp_sofc,,2025.2.3,59.38171755831682,2026-04-02 14h49.38.177905 +0200,
,58,0,58,,,,,,,,,,,,,,,,,,,,,,None,None,,,,,,,,,,,,,58,0,58,0,935.5801214000094,,,,,,,,,,,,,,,,,,,,,,,,,,,,,,,,,,,,,,,,,,,,,,,clips/clip_wurst_15_nosub_2.mp4,audios/clip_wurst_15_nosub_2.mp3,audiovisual,935.5747046000033,935.9636354999966,936.163641799998,936.163641799998,936.1634025666756,945.5952539999998,945.7983957999968,945.5954228000046,[5.532026700006099],945.6994573999982,945.6995253000059,None,945.6995872999978,945.6996126000013,None,,,,,,,,,,,,,,,,345,001,2026-04-02_14h49.37.145,exp_sofc,,2025.2.3,59.38171755831682,2026-04-02 14h49.38.177905 +0200,
,59,0,59,,,,,,,,,,,,,,,,,,,,,,None,None,,,,,,,,,,,,,59,0,59,0,945.7983957999968,,,,,,,,,,,,,,,,,,,,,,,,,,,,,,,,,,,,,,,,,,,,,,,clips/clip_weißt_14_nosub_2.mp4,audios/clip_weißt_14_nosub_2.mp3,audiovisual,945.7944978000014,946.2049208000099,946.4047362999991,946.4047362999991,946.4042838666685,955.3352057000011,955.4323203000095,955.335401400007,"[2.8055308000039076, 8.088730300005409]",955.4238617000083,955.4239133000083,None,955.423955899998,1075.4303097000084,None,,,,,,,955.4323203000095,955.4323203000095,955.4323203000095,1075.533110400007,1075.533110400007,,,,,345,001,2026-04-02_14h49.37.145,exp_sofc,,2025.2.3,59.38171755831682,2026-04-02 14h49.38.177905 +0200,
,60,0,60,,,,,,,,,,,,,,,,,,,,,,None,None,,,,,,,,,,,,,60,0,60,0,1075.533110400007,,,,,,,,,,,,,,,,,,,,,,,,,,,,,,,,,,,,,,,,,,,,,,,clips/clip_weißt_30_sub_2.mp4,audios/silence.mp3,visual,1075.5273703999992,1075.9393402999995,1076.139732399999,1076.139732399999,1076.139691166671,1077.3916648000013,1088.336665499999,1088.1583306000102,"[2.927485699998215, 12.07275400000799]",1088.2432006000017,1088.2432837000088,None,1088.2433535000018,1088.2433719999972,None,,,,,,,,,,,,,,,,345,001,2026-04-02_14h49.37.145,exp_sofc,,2025.2.3,59.38171755831682,2026-04-02 14h49.38.177905 +0200,
,61,0,61,,,,,,,,,,,,,,,,,,,,,,None,None,,,,,,,,,,,,,61,0,61,0,1088.336665499999,,,,,,,,,,,,,,,,,,,,,,,,,,,,,,,,,,,,,,,,,,,,,,,clips/clip_lied_09_sub_1.mp4,audios/silence.mp3,visual,1088.3311044000002,1088.7600822000095,1088.9601344999974,1088.9435618999996,1088.9434863666722,1090.1956081000098,1099.580532100008,1099.376642800009,[],1099.466787199999,1099.4668404999975,None,1099.466882000008,1099.4668994000094,None,,,,,,,,,,,,,,,,345,001,2026-04-02_14h49.37.145,exp_sofc,,2025.2.3,59.38171755831682,2026-04-02 14h49.38.177905 +0200,
,62,0,62,,,,,,,,,,,,,,,,,,,,,,None,None,,,,,,,,,,,,,62,0,62,0,1099.580532100008,,,,,,,,,,,,,,,,,,,,,,,,,,,,,,,,,,,,,,,,,,,,,,,clips/clip_wurst_01_sub_0.mp4,audios/clip_wurst_01_sub_0.mp3,audiovisual,1099.5753846000007,1099.968181999997,1100.1688525000063,1100.1688525000063,1100.1694727666656,1110.3106395000068,1110.3106395000068,1110.1000230000063,[],1110.1937691000057,1110.1938091000047,None,1110.1938777000032,1110.1939112999971,None,,,,,,,,,,,,,,,,345,001,2026-04-02_14h49.37.145,exp_sofc,,2025.2.3,59.38171755831682,2026-04-02 14h49.38.177905 +0200,
,63,0,63,,,,,,,,,,,,,,,,,,,,,,None,None,,,,,,,,,,,,,63,0,63,0,1110.3106395000068,,,,,,,,,,,,,,,,,,,,,,,,,,,,,,,,,,,,,,,,,,,,,,,clips/clip_weißt_26_sub_1.mp4,audios/clip_weißt_26_sub_1.mp3,audiovisual,1110.3051364999992,1110.693658700009,1110.8938062000088,1110.8938062000088,1110.8937903666704,1121.126470400006,1121.3372673999984,1121.1266491999995,[7.44069909999962],1121.2292381000007,1121.2293013000017,None,1121.22935400001,1121.229378300006,None,,,,,,,,,,,,,,,,345,001,2026-04-02_14h49.37.145,exp_sofc,,2025.2.3,59.38171755831682,2026-04-02 14h49.38.177905 +0200,
,64,0,64,,,,,,,,,,,,,,,,,,,,,,None,None,,,,,,,,,,,,,64,0,64,0,1121.3372673999984,,,,,,,,,,,,,,,,,,,,,,,,,,,,,,,,,,,,,,,,,,,,,,,clips/clip_herz_07_nosub_2.mp4,audios/silence.mp3,visual,1121.331551700001,1121.7371532999969,1121.9381388000038,1121.9381388000038,1121.9371775666698,1123.1909216000058,1134.1235242999974,1133.957056500003,"[4.2195990000036545, 10.724629200005438]",1134.035891300009,1134.0359462000051,None,1134.036013200006,1134.0360382000072,None,,,,,,,,,,,,,,,,345,001,2026-04-02_14h49.37.145,exp_sofc,,2025.2.3,59.38171755831682,2026-04-02 14h49.38.177905 +0200,
,65,0,65,,,,,,,,,,,,,,,,,,,,,,None,None,,,,,,,,,,,,,65,0,65,0,1134.1235242999974,,,,,,,,,,,,,,,,,,,,,,,,,,,,,,,,,,,,,,,,,,,,,,,clips/clip_wurst_28_sub_1.mp4,audios/silence.mp3,visual,1134.1204244999972,1134.5401697000052,1134.7421929999982,1134.7421929999982,1134.7416414666698,1135.992924200007,1145.2567616000015,1145.074428500011,[],1145.1581529000105,1145.158206100008,None,1145.158286100006,1145.158313100008,None,,,,,,,,,,,,,,,,345,001,2026-04-02_14h49.37.145,exp_sofc,,2025.2.3,59.38171755831682,2026-04-02 14h49.38.177905 +0200,
,66,0,66,,,,,,,,,,,,,,,,,,,,,,None,None,,,,,,,,,,,,,66,0,66,0,1145.2567616000015,,,,,,,,,,,,,,,,,,,,,,,,,,,,,,,,,,,,,,,,,,,,,,,clips/clip_herz_12_sub_0.mp4,audios/silence.mp3,visual,1145.2510586999997,1145.65745720001,1145.8581125000055,1145.8581125000055,1145.8581964666703,1147.1102511000063,1155.1749122000037,1154.956777600004,[6.529634000005899],1155.042908500007,1155.042956899997,None,1155.0430392999988,1155.043071100008,None,,,,,,,,,,,,,,,,345,001,2026-04-02_14h49.37.145,exp_sofc,,2025.2.3,59.38171755831682,2026-04-02 14h49.38.177905 +0200,
,67,0,67,,,,,,,,,,,,,,,,,,,,,,4,None,4.498816600011196,None,,,,,,,,,,,67,0,67,0,1155.1749122000037,,,,,,,,,,,,,,,,,,,,,,,,,,,,,,,,,,,,,,,,,,,,,,,clips/clip_wurst_23_nosub_2.mp4,audios/clip_wurst_23_nosub_2.mp3,audiovisual,1155.170128800004,1155.5561049000098,1155.7569111000048,1155.7569111000048,1155.7570183666724,1166.2896081000072,1166.388951300003,1166.2897832000017,"[3.668774300007499, 7.776637999995728]",1166.3838230999972,1170.8887430000032,4,1170.8888042000035,1170.8888303999993,None,4,1166.388951300003,1166.388951300003,1166.388951300003,4.498816600011196,None,,,,,,,,,,345,001,2026-04-02_14h49.37.145,exp_sofc,,2025.2.3,59.38171755831682,2026-04-02 14h49.38.177905 +0200,
,68,0,68,,,,,,,,,,,,,,,,,,,,,,None,None,,,,,,,,,,,,,68,0,68,0,1170.9988900000026,,,,,,,,,,,,,,,,,,,,,,,,,,,,,,,,,,,,,,,,,,,,,,,clips/clip_wurst_04_nosub_2.mp4,audios/clip_wurst_04_nosub_2.mp3,audiovisual,1170.9941105000034,1171.3995647999982,1171.5997403000074,1171.5997403000074,1171.5995515666766,1183.2517577000108,1183.4609807000088,1183.251971500009,[4.262748399996781],1183.329387500009,1183.3294194000046,None,1183.3294475000002,1183.3294630000019,None,,,,,,,,,,,,,,,,345,001,2026-04-02_14h49.37.145,exp_sofc,,2025.2.3,59.38171755831682,2026-04-02 14h49.38.177905 +0200,
,69,0,69,,,,,,,,,,,,,,,,,,,,,,3,None,3.05652809998719,None,,,,,,,,,,,69,0,69,0,1183.4609807000088,,,,,,,,,,,,,,,,,,,,,,,,,,,,,,,,,,,,,,,,,,,,,,,clips/clip_holo_23_sub_1.mp4,audios/clip_holo_23_sub_1.mp3,audiovisual,1183.4564640000026,1183.828111900002,1184.0289742000023,1184.0289742000023,1184.0290209666748,1194.062402399999,1194.1727857000078,1194.06263890001,[],1194.1658716000093,1197.2436486000079,3,1197.2437117000081,1197.2437385000085,None,3,1194.1727857000078,1194.1727857000078,1194.1727857000078,3.05652809998719,None,,,,,,,,,,345,001,2026-04-02_14h49.37.145,exp_sofc,,2025.2.3,59.38171755831682,2026-04-02 14h49.38.177905 +0200,
,70,0,70,,,,,,,,,,,,,,,,,,,,,,None,None,,,,,,,,,,,,,70,0,70,0,1197.3585284,,,,,,,,,,,,,,,,,,,,,,,,,,,,,,,,,,,,,,,,,,,,,,,clips/clip_wurst_31_nosub_1.mp4,audios/clip_wurst_31_nosub_1.mp3,audiovisual,1197.3535801000107,1197.7426134999987,1197.9435557000106,1197.9435557000106,1197.9435973666734,1207.9748797000066,1209.171766200001,1208.9604686000093,[],1209.0421606000018,1209.0421936000057,None,1209.0422207000083,1209.042235800007,None,,,,,,,,,,,,,,,,345,001,2026-04-02_14h49.37.145,exp_sofc,,2025.2.3,59.38171755831682,2026-04-02 14h49.38.177905 +0200,
,71,0,71,,,,,,,,,,,,,,,,,,,,,,None,None,,,,,,,,,,,,,71,0,71,0,1209.171766200001,,,,,,,,,,,,,,,,,,,,,,,,,,,,,,,,,,,,,,,,,,,,,,,clips/clip_weißt_25_nosub_1.mp4,audios/clip_weißt_25_nosub_1.mp3,audiovisual,1209.1667210000014,1209.5560662000062,1209.7561103000044,1209.7561103000044,1209.7559104666764,1221.9738921000098,1221.9738921000098,1221.7742822,[5.317923399998108],1221.864281400005,1221.8643458000006,None,1221.8644802000053,1221.8645722000074,None,,,,,,,,,,,,,,,,345,001,2026-04-02_14h49.37.145,exp_sofc,,2025.2.3,59.38171755831682,2026-04-02 14h49.38.177905 +0200,
,72,0,72,,,,,,,,,,,,,,,,,,,,,,None,None,,,,,,,,,,,,,72,0,72,0,1221.9738921000098,,,,,,,,,,,,,,,,,,,,,,,,,,,,,,,,,,,,,,,,,,,,,,,clips/clip_wurst_32_sub_1.mp4,audios/silence.mp3,visual,1221.9682494000008,1222.366802900011,1222.5696763000014,1222.5696763000014,1222.5677672666682,1223.8188585000025,1233.399867500004,1233.2002721000026,[7.399931899999501],1233.285087700002,1233.2851287000085,None,1233.2852015000099,1233.2852322000108,None,,,,,,,,,,,,,,,,345,001,2026-04-02_14h49.37.145,exp_sofc,,2025.2.3,59.38171755831682,2026-04-02 14h49.38.177905 +0200,
,73,0,73,,,,,,,,,,,,,,,,,,,,,,None,None,,,,,,,,,,,,,73,0,73,0,1233.399867500004,,,,,,,,,,,,,,,,,,,,,,,,,,,,,,,,,,,,,,,,,,,,,,,clips/clip_lied_08_sub_1.mp4,audios/clip_lied_08_sub_1.mp3,audiovisual,1233.3958187000098,1233.7927575000067,1233.9945892999967,1233.9945892999967,1233.993757466673,,1243.2849148000096,1243.093618800005,[7.492598199998611],1243.1861891000008,1243.1862312000012,None,1243.1862615999999,1243.186280599999,None,,,,,,,,,,,,,,,,345,001,2026-04-02_14h49.37.145,exp_sofc,,2025.2.3,59.38171755831682,2026-04-02 14h49.38.177905 +0200,
,74,0,74,,,,,,,,,,,,,,,,,,,,,,None,None,,,,,,,,,,,,,74,0,74,0,1243.2849148000096,,,,,,,,,,,,,,,,,,,,,,,,,,,,,,,,,,,,,,,,,,,,,,,clips/clip_herz_03_nosub_2.mp4,audios/silence.mp3,visual,1243.2802717000013,1243.7016812000074,1243.9172355000046,1243.9004631999996,1243.9001724666634,1245.1521483000106,1256.4923084000038,1256.3033073999977,"[4.474449600005755, 11.521867700008443]",1256.3814058999997,1256.381454500006,None,1256.3814913000097,1256.3815088999982,None,,,,,,,,,,,,,,,,345,001,2026-04-02_14h49.37.145,exp_sofc,,2025.2.3,59.38171755831682,2026-04-02 14h49.38.177905 +0200,
,75,0,75,,,,,,,,,,,,,,,,,,,,,,None,None,,,,,,,,,,,,,75,0,75,0,1256.4923084000038,,,,,,,,,,,,,,,,,,,,,,,,,,,,,,,,,,,,,,,,,,,,,,,clips/clip_hund_08_nosub_1.mp4,audios/silence.mp3,visual,1256.4865982000047,1256.891878399998,1257.0935870000103,1257.0935870000103,1257.092385066677,1258.3442137000093,1267.3440581000032,1267.1255363000091,[],1267.2198961000104,1267.2199357000063,None,1267.2199738000054,1267.2199966000044,None,,,,,,,,,,,,,,,,345,001,2026-04-02_14h49.37.145,exp_sofc,,2025.2.3,59.38171755831682,2026-04-02 14h49.38.177905 +0200,
,76,0,76,,,,,,,,,,,,,,,,,,,,,,None,None,,,,,,,,,,,,,76,0,76,0,1267.3440581000032,,,,,,,,,,,,,,,,,,,,,,,,,,,,,,,,,,,,,,,,,,,,,,,clips/clip_wurst_26_sub_1.mp4,audios/clip_wurst_26_sub_1.mp3,audiovisual,1267.3388010000053,1267.7254612999968,1267.9259189000004,1267.9259189000004,1267.9257228666722,1279.9444845000107,1280.16620040001,1279.9446565000108,[10.347163799990085],1280.0473471000005,1280.0473816000012,None,1280.0474209000095,1280.047438900001,None,,,,,,,,,,,,,,,,345,001,2026-04-02_14h49.37.145,exp_sofc,,2025.2.3,59.38171755831682,2026-04-02 14h49.38.177905 +0200,
,77,0,77,,,,,,,,,,,,,,,,,,,,,,None,None,,,,,,,,,,,,,77,0,77,0,1280.16620040001,,,,,,,,,,,,,,,,,,,,,,,,,,,,,,,,,,,,,,,,,,,,,,,clips/clip_hund_04_nosub_0.mp4,audios/silence.mp3,visual,1280.1601539999974,1280.5623654000083,1280.7627509000013,1280.7627509000013,1280.7626951666646,1282.0145461000066,1290.489147100001,1290.2941997000016,[],1290.393600299998,1290.3936687000096,None,1290.3937117000023,1290.393735500009,None,,,,,,,,,,,,,,,,345,001,2026-04-02_14h49.37.145,exp_sofc,,2025.2.3,59.38171755831682,2026-04-02 14h49.38.177905 +0200,
,78,0,78,,,,,,,,,,,,,,,,,,,,,,None,None,,,,,,,,,,,,,78,0,78,0,1290.489147100001,,,,,,,,,,,,,,,,,,,,,,,,,,,,,,,,,,,,,,,,,,,,,,,clips/clip_wurst_29_sub_1.mp4,audios/silence.mp3,visual,1290.4843253,1290.9034437000082,1291.10382270001,1291.10382270001,1291.1039055666663,1292.355558100011,1303.331943600002,1303.1222392000054,[],1303.2149570000038,1303.2150199000025,None,1303.21505910001,1303.2150762000092,None,,,,,,,,,,,,,,,,345,001,2026-04-02_14h49.37.145,exp_sofc,,2025.2.3,59.38171755831682,2026-04-02 14h49.38.177905 +0200,
,79,0,79,,,,,,,,,,,,,,,,,,,,,,None,None,,,,,,,,,,,,,79,0,79,0,1303.331943600002,,,,,,,,,,,,,,,,,,,,,,,,,,,,,,,,,,,,,,,,,,,,,,,clips/clip_lied_17_nosub_2.mp4,audios/clip_lied_17_nosub_2.mp3,audiovisual,1303.3282223999995,1303.716212600004,1303.9172037000098,1303.9172037000098,1303.9167525666746,1313.9494084000034,1314.1367102000077,1313.9495336999971,[7.700440500004333],1314.0212033999996,1314.0212593000033,None,1314.0213055000058,1314.021322600005,None,,,,,,,,,,,,,,,,345,001,2026-04-02_14h49.37.145,exp_sofc,,2025.2.3,59.38171755831682,2026-04-02 14h49.38.177905 +0200,
,80,0,80,,,,,,,,,,,,,,,,,,,,,,None,None,,,,,,,,,,,,,80,0,80,0,1314.1367102000077,,,,,,,,,,,,,,,,,,,,,,,,,,,,,,,,,,,,,,,,,,,,,,,clips/clip_wurst_13_sub_0.mp4,audios/clip_wurst_13_sub_0.mp3,audiovisual,1314.131369499999,1314.5363790999982,1314.7368889000063,1314.7208202000038,1314.7203914666645,1324.3517807000026,1324.5404227000108,1324.3519708000094,[],1324.446054,1324.4460913000075,None,1324.4461572,1324.4461949000106,None,,,,,,,,,,,,,,,,345,001,2026-04-02_14h49.37.145,exp_sofc,,2025.2.3,59.38171755831682,2026-04-02 14h49.38.177905 +0200,
,81,0,81,,,,,,,,,,,,,,,,,,,,,,None,None,,,,,,,,,,,,,81,0,81,0,1324.5404227000108,,,,,,,,,,,,,,,,,,,,,,,,,,,,,,,,,,,,,,,,,,,,,,,clips/clip_herz_16_nosub_0.mp4,audios/silence.mp3,visual,1324.5347693000076,1324.9568109000102,1325.1581436999986,1325.1581436999986,1325.1576742666696,1326.4089341000072,1334.410287400009,1334.1880940999981,[],1334.2758890999976,1334.2759401000076,None,1334.2759888,1334.2760133999982,None,,,,,,,,,,,,,,,,345,001,2026-04-02_14h49.37.145,exp_sofc,,2025.2.3,59.38171755831682,2026-04-02 14h49.38.177905 +0200,
,82,0,82,,,,,,,,,,,,,,,,,,,,,,None,None,,,,,,,,,,,,,82,0,82,0,1334.410287400009,,,,,,,,,,,,,,,,,,,,,,,,,,,,,,,,,,,,,,,,,,,,,,,clips/clip_weißt_04_sub_0.mp4,audios/clip_weißt_04_sub_0.mp3,audiovisual,1334.4050382999994,1334.7885874000058,1334.989552900006,1334.989552900006,1334.9888901666748,,1345.301304499997,1345.088147900009,[],1345.1896388000023,1345.1896751000022,None,1345.1897200000094,1345.1897673000058,None,,,,,,,,,,,,,,,,345,001,2026-04-02_14h49.37.145,exp_sofc,,2025.2.3,59.38171755831682,2026-04-02 14h49.38.177905 +0200,
,83,0,83,,,,,,,,,,,,,,,,,,,,,,None,None,,,,,,,,,,,,,83,0,83,0,1345.301304499997,,,,,,,,,,,,,,,,,,,,,,,,,,,,,,,,,,,,,,,,,,,,,,,clips/clip_claude_29_sub_0.mp4,audios/clip_claude_29_sub_0.mp3,audiovisual,1345.2972563000076,1345.7024296000018,1345.9026558000041,1345.9026558000041,1345.9027235666765,1355.9354475,1356.1311760000099,1355.935632000008,[],1356.0308610000066,1356.0308976000088,None,1356.030961299999,1356.0309927000053,None,,,,,,,,,,,,,,,,345,001,2026-04-02_14h49.37.145,exp_sofc,,2025.2.3,59.38171755831682,2026-04-02 14h49.38.177905 +0200,
,84,0,84,,,,,,,,,,,,,,,,,,,,,,None,None,,,,,,,,,,,,,84,0,84,0,1356.1311760000099,,,,,,,,,,,,,,,,,,,,,,,,,,,,,,,,,,,,,,,,,,,,,,,clips/clip_hund_35_sub_0.mp4,audios/silence.mp3,visual,1356.1254763000034,1356.5444957,1356.744757499997,1356.744757499997,1356.744952266676,1357.997234200011,1367.3683164000104,1367.1776901999983,[],1367.2727544000081,1367.2728145,None,1367.2728630000056,1367.2728793999995,None,,,,,,,,,,,,,,,,345,001,2026-04-02_14h49.37.145,exp_sofc,,2025.2.3,59.38171755831682,2026-04-02 14h49.38.177905 +0200,
,85,0,85,,,,,,,,,,,,,,,,,,,,,,None,None,,,,,,,,,,,,,85,0,85,0,1367.3683164000104,,,,,,,,,,,,,,,,,,,,,,,,,,,,,,,,,,,,,,,,,,,,,,,clips/clip_weißt_07_nosub_1.mp4,audios/silence.mp3,visual,1367.3625331000076,1367.7847168000008,1367.985058700011,1367.985058700011,1367.9847151666656,1369.2366694000084,1377.8886554000055,1377.7168604000035,[3.7714199000038207],1377.792426800006,1377.7924722000025,None,1377.7925112000084,1377.7925332000013,None,,,,,,,,,,,,,,,,345,001,2026-04-02_14h49.37.145,exp_sofc,,2025.2.3,59.38171755831682,2026-04-02 14h49.38.177905 +0200,
,86,0,86,,,,,,,,,,,,,,,,,,,,,,None,None,,,,,,,,,,,,,86,0,86,0,1377.8886554000055,,,,,,,,,,,,,,,,,,,,,,,,,,,,,,,,,,,,,,,,,,,,,,,clips/clip_holo_16_nosub_1.mp4,audios/silence.mp3,visual,1377.8830856999994,1378.3011239000043,1378.5013479000045,1378.5013479000045,1378.5014317666685,1379.7541169000033,1390.7341682999977,1390.5209534000023,[10.189568999994663],1390.6088071999984,1390.6088467000081,None,1390.6089138000098,1390.6089366000087,None,,,,,,,,,,,,,,,,345,001,2026-04-02_14h49.37.145,exp_sofc,,2025.2.3,59.38171755831682,2026-04-02 14h49.38.177905 +0200,
,87,0,87,,,,,,,,,,,,,,,,,,,,,,None,None,,,,,,,,,,,,,87,0,87,0,1390.7341682999977,,,,,,,,,,,,,,,,,,,,,,,,,,,,,,,,,,,,,,,,,,,,,,,clips/clip_holo_19_nosub_1.mp4,audios/clip_holo_19_nosub_1.mp3,audiovisual,1390.7281078000087,1391.116714600008,1391.3184567999997,1391.3184567999997,1391.3175805666726,1401.3496893999982,1401.567855100002,1401.349872100007,"[0.08016029999998864, 6.493329300006735]",1401.4616687000089,1401.46173000001,None,1401.4618022000068,1401.461874200002,None,,,,,,,,,,,,,,,,345,001,2026-04-02_14h49.37.145,exp_sofc,,2025.2.3,59.38171755831682,2026-04-02 14h49.38.177905 +0200,
,88,0,88,,,,,,,,,,,,,,,,,,,,,,None,None,,,,,,,,,,,,,88,0,88,0,1401.567855100002,,,,,,,,,,,,,,,,,,,,,,,,,,,,,,,,,,,,,,,,,,,,,,,clips/clip_herz_17_nosub_0.mp4,audios/silence.mp3,visual,1401.562023999999,1401.9670254000084,1402.167903900001,1402.167903900001,1402.1677773666636,1403.4193002000102,1410.5825876000017,1410.3803277999978,[5.534166800003732],1410.4632863000006,1410.4633220999967,None,1410.4633582000097,1410.4633832000109,None,,,,,,,,,,,,,,,,345,001,2026-04-02_14h49.37.145,exp_sofc,,2025.2.3,59.38171755831682,2026-04-02 14h49.38.177905 +0200,
,89,0,89,,,,,,,,,,,,,,,,,,,,,,None,None,,,,,,,,,,,,,89,0,89,0,1410.5825876000017,,,,,,,,,,,,,,,,,,,,,,,,,,,,,,,,,,,,,,,,,,,,,,,clips/clip_lied_22_nosub_1.mp4,audios/clip_lied_22_nosub_1.mp3,audiovisual,1410.5785587999999,1410.9731790000078,1411.173541199998,1411.173541199998,1411.1735814666647,1421.8800360000023,1421.8800360000023,1421.6906077000021,[],1421.7757324999984,1421.7757937999995,None,1421.7758241999982,1421.7758448000095,None,,,,,,,,,,,,,,,,345,001,2026-04-02_14h49.37.145,exp_sofc,,2025.2.3,59.38171755831682,2026-04-02 14h49.38.177905 +0200,
,90,0,90,,,,,,,,,,,,,,,,,,,,,,None,None,,,,,,,,,,,,,90,0,90,0,1421.8800360000023,,,,,,,,,,,,,,,,,,,,,,,,,,,,,,,,,,,,,,,,,,,,,,,clips/clip_holo_13_sub_1.mp4,audios/silence.mp3,visual,1421.874165000001,1422.2794696000055,1422.4799313999974,1422.4799313999974,1422.4797330666663,1423.7317132000026,1434.4992399000039,1434.2984195000026,[4.485982900005183],1434.395941499999,1434.396024200003,None,1434.3960720000032,1434.3960965000006,None,,,,,,,,,,,,,,,,345,001,2026-04-02_14h49.37.145,exp_sofc,,2025.2.3,59.38171755831682,2026-04-02 14h49.38.177905 +0200,
,91,0,91,,,,,,,,,,,,,,,,,,,,,,None,None,,,,,,,,,,,,,91,0,91,0,1434.4992399000039,,,,,,,,,,,,,,,,,,,,,,,,,,,,,,,,,,,,,,,,,,,,,,,clips/clip_holo_04_nosub_2.mp4,audios/silence.mp3,visual,1434.493387399998,1434.9077167000069,1435.1086174000084,1435.1086174000084,1435.1076576666712,1436.3599093000084,1447.3465252000024,1447.1269224999996,"[3.1514945999952033, 7.109362100003636]",1447.2198718,1447.2199319000065,None,1447.219988500001,1447.2200066000078,None,,,,,,,,,,,,,,,,345,001,2026-04-02_14h49.37.145,exp_sofc,,2025.2.3,59.38171755831682,2026-04-02 14h49.38.177905 +0200,
,92,0,92,,,,,,,,,,,,,,,,,,,,,,None,None,,,,,,,,,,,,,92,0,92,0,1447.3465252000024,,,,,,,,,,,,,,,,,,,,,,,,,,,,,,,,,,,,,,,,,,,,,,,clips/clip_wurst_20_nosub_0.mp4,audios/clip_wurst_20_nosub_0.mp3,audiovisual,1447.34179820001,1447.7285881999996,1447.9282027000008,1447.9282027000008,1447.9278712666749,1457.9432593000092,1458.139055000007,1457.943424099998,[],1458.0346233000018,1458.0346657000046,None,1458.0347035000013,1458.034739900002,None,,,,,,,,,,,,,,,,345,001,2026-04-02_14h49.37.145,exp_sofc,,2025.2.3,59.38171755831682,2026-04-02 14h49.38.177905 +0200,
,93,0,93,,,,,,,,,,,,,,,,,,,,,,None,None,,,,,,,,,,,,,93,0,93,0,1458.139055000007,,,,,,,,,,,,,,,,,,,,,,,,,,,,,,,,,,,,,,,,,,,,,,,clips/clip_claude_11_nosub_0.mp4,audios/silence.mp3,visual,1458.1330405000044,1458.5363266000059,1458.7367438000074,1458.7367438000074,1458.7364132666737,1459.9882319000026,1468.984680900001,1468.7695269000105,[],1468.8752956000098,1468.87536060001,None,1468.8754042000073,1468.8754229000042,None,,,,,,,,,,,,,,,,345,001,2026-04-02_14h49.37.145,exp_sofc,,2025.2.3,59.38171755831682,2026-04-02 14h49.38.177905 +0200,
,94,0,94,,,,,,,,,,,,,,,,,,,,,,None,None,,,,,,,,,,,,,94,0,94,0,1468.984680900001,,,,,,,,,,,,,,,,,,,,,,,,,,,,,,,,,,,,,,,,,,,,,,,clips/clip_hund_09_nosub_2.mp4,audios/clip_hund_09_nosub_2.mp3,audiovisual,1468.97952600001,1469.3842730000033,1469.5846772000077,1469.5846772000077,1469.5845072666746,1481.3535477999976,1481.3535477999976,1481.154104500005,"[5.537155199999688, 10.474316199994064]",1481.2499355000036,1481.2499863999983,None,1481.2500266999996,1481.250052400006,None,,,,,,,,,,,,,,,,345,001,2026-04-02_14h49.37.145,exp_sofc,,2025.2.3,59.38171755831682,2026-04-02 14h49.38.177905 +0200,
,95,0,95,,,,,,,,,,,,,,,,,,,,,,None,None,,,,,,,,,,,,,95,0,95,0,1481.3535477999976,,,,,,,,,,,,,,,,,,,,,,,,,,,,,,,,,,,,,,,,,,,,,,,clips/clip_weißt_12_sub_1.mp4,audios/silence.mp3,visual,1481.3482289000094,1481.7621324000065,1481.9622973000078,1481.9622973000078,1481.9627200666766,1483.214159700001,1494.108575700011,1493.8821242999984,[9.113143700000364],1493.970396500008,1493.9704520000087,None,1493.9704862000071,1493.9705038000102,None,,,,,,,,,,,,,,,,345,001,2026-04-02_14h49.37.145,exp_sofc,,2025.2.3,59.38171755831682,2026-04-02 14h49.38.177905 +0200,
,96,0,96,,,,,,,,,,,,,,,,,,,,,,4,None,3.548200800010818,None,,,,,,,,,,,96,0,96,0,1494.108575700011,,,,,,,,,,,,,,,,,,,,,,,,,,,,,,,,,,,,,,,,,,,,,,,clips/clip_holo_08_nosub_2.mp4,audios/clip_holo_08_nosub_2.mp3,audiovisual,1494.1039278000098,1494.481402999998,1494.6826259000081,1494.6826259000081,1494.6817126666758,,1505.5966905000096,1505.4870978000108,"[4.525504899997031, 9.253108000004431]",1505.5913015999977,1509.1528868000023,4,1509.1529469000088,1509.152972099997,None,4,1505.5966905000096,1505.5966905000096,1505.5966905000096,3.548200800010818,None,,,,,,,,,,345,001,2026-04-02_14h49.37.145,exp_sofc,,2025.2.3,59.38171755831682,2026-04-02 14h49.38.177905 +0200,
,97,0,97,,,,,,,,,,,,,,,,,,,,,,None,None,,,,,,,,,,,,,97,0,97,0,1509.270829000001,,,,,,,,,,,,,,,,,,,,,,,,,,,,,,,,,,,,,,,,,,,,,,,clips/clip_claude_08_nosub_0.mp4,audios/silence.mp3,visual,1509.2649191000091,1509.6535672000027,1509.854531600009,1509.854531600009,1509.8540341666705,1511.1058666000026,1519.6974445000087,1519.486441000001,[],1519.5833865000022,1519.5834283000004,None,1519.583500400011,1519.5835285000067,None,,,,,,,,,,,,,,,,345,001,2026-04-02_14h49.37.145,exp_sofc,,2025.2.3,59.38171755831682,2026-04-02 14h49.38.177905 +0200,
,98,0,98,,,,,,,,,,,,,,,,,,,,,,None,None,,,,,,,,,,,,,98,0,98,0,1519.6974445000087,,,,,,,,,,,,,,,,,,,,,,,,,,,,,,,,,,,,,,,,,,,,,,,clips/clip_claude_03_sub_1.mp4,audios/silence.mp3,visual,1519.6917951000069,1520.097241800002,1520.300126000002,1520.300126000002,1520.297487366672,1521.5494521000073,1532.008668200011,1531.815793200003,[5.223165399991558],1531.9029345000017,1531.9029793000082,None,1531.9030392999994,1531.903131500003,None,,,,,,,,,,,,,,,,345,001,2026-04-02_14h49.37.145,exp_sofc,,2025.2.3,59.38171755831682,2026-04-02 14h49.38.177905 +0200,
,99,0,99,,,,,,,,,,,,,,,,,,,,,,None,None,,,,,,,,,,,,,99,0,99,0,1532.008668200011,,,,,,,,,,,,,,,,,,,,,,,,,,,,,,,,,,,,,,,,,,,,,,,clips/clip_hund_10_sub_0.mp4,audios/clip_hund_10_sub_0.mp3,audiovisual,1532.0046634000028,1532.408573000008,1532.6091176000045,1532.6091176000045,1532.6089309666752,1542.1410774999968,1542.3491655000107,1542.1412662000075,[8.801221200003056],1542.2443682000012,1542.244415699999,None,1542.2444579000003,1542.244482299997,None,,,,,,,,,,,,,,,,345,001,2026-04-02_14h49.37.145,exp_sofc,,2025.2.3,59.38171755831682,2026-04-02 14h49.38.177905 +0200,
,100,0,100,,,,,,,,,,,,,,,,,,,,,,None,None,,,,,,,,,,,,,100,0,100,0,1542.3491655000107,,,,,,,,,,,,,,,,,,,,,,,,,,,,,,,,,,,,,,,,,,,,,,,clips/clip_wurst_08_sub_1.mp4,audios/silence.mp3,visual,1542.3433439000073,1542.7492101000098,1542.9495831000095,1542.9495831000095,1542.9496251666753,1544.2012961,1551.699045100002,1551.4798381,[5.471366100013256],1551.5724235000089,1551.5724996000063,None,1551.5725385999976,1551.5725544000015,None,,,,,,,,,,,,,,,,345,001,2026-04-02_14h49.37.145,exp_sofc,,2025.2.3,59.38171755831682,2026-04-02 14h49.38.177905 +0200,
,101,0,101,,,,,,,,,,,,,,,,,,,,,,None,None,,,,,,,,,,,,,101,0,101,0,1551.699045100002,,,,,,,,,,,,,,,,,,,,,,,,,,,,,,,,,,,,,,,,,,,,,,,clips/clip_herz_13_sub_0.mp4,audios/clip_herz_13_sub_0.mp3,audiovisual,1551.6944971000048,1552.0800829000073,1552.2808419000066,1552.2808419000066,1552.2820015666696,,1563.6757217999984,1563.4823190000025,[7.898267900003702],1563.5719438000087,1563.5720300000103,None,1563.572084200001,1563.5721166000003,None,,,,,,,,,,,,,,,,345,001,2026-04-02_14h49.37.145,exp_sofc,,2025.2.3,59.38171755831682,2026-04-02 14h49.38.177905 +0200,
,102,0,102,,,,,,,,,,,,,,,,,,,,,,None,None,,,,,,,,,,,,,102,0,102,0,1563.6757217999984,,,,,,,,,,,,,,,,,,,,,,,,,,,,,,,,,,,,,,,,,,,,,,,clips/clip_weißt_19_sub_1.mp4,audios/silence.mp3,visual,1563.670091100008,1564.0737748000101,1564.2741960999992,1564.2741960999992,1564.2740869666634,1565.5260865000018,1574.5161249000084,1574.307855200008,[],1574.3999634000065,1574.3999998000072,None,1574.400032400008,1574.4000494000065,None,,,,,,,,,,,,,,,,345,001,2026-04-02_14h49.37.145,exp_sofc,,2025.2.3,59.38171755831682,2026-04-02 14h49.38.177905 +0200,
,103,0,103,,,,,,,,,,,,,,,,,,,,,,None,None,,,,,,,,,,,,,103,0,103,0,1574.5161249000084,,,,,,,,,,,,,,,,,,,,,,,,,,,,,,,,,,,,,,,,,,,,,,,clips/clip_herz_04_nosub_0.mp4,audios/clip_herz_04_nosub_0.mp3,audiovisual,1574.5108752000087,1574.8990426000091,1575.100273700009,1575.100273700009,1575.099514266669,1586.1163681000035,1586.3232085000054,1586.1165490999992,[8.133021199988434],1586.2001257000084,1586.200173300007,None,1586.2002127000014,1586.2002292999969,None,,,,,,,,,,,,,,,,345,001,2026-04-02_14h49.37.145,exp_sofc,,2025.2.3,59.38171755831682,2026-04-02 14h49.38.177905 +0200,
,104,0,104,,,,,,,,,,,,,,,,,,,,,,None,None,,,,,,,,,,,,,104,0,104,0,1586.3232085000054,,,,,,,,,,,,,,,,,,,,,,,,,,,,,,,,,,,,,,,,,,,,,,,clips/clip_hund_17_sub_1.mp4,audios/clip_hund_17_sub_1.mp3,audiovisual,1586.319048999998,1586.7101162000035,1586.90983460001,1586.90983460001,1586.9100056666687,,1599.430678500008,1599.2126269,[10.222857999993721],1599.3109148000076,1599.310953200009,None,1599.310995000007,1599.3110162000085,None,,,,,,,,,,,,,,,,345,001,2026-04-02_14h49.37.145,exp_sofc,,2025.2.3,59.38171755831682,2026-04-02 14h49.38.177905 +0200,
,105,0,105,,,,,,,,,,,,,,,,,,,,,,None,None,,,,,,,,,,,,,105,0,105,0,1599.430678500008,,,,,,,,,,,,,,,,,,,,,,,,,,,,,,,,,,,,,,,,,,,,,,,clips/clip_holo_14_sub_0.mp4,audios/clip_holo_14_sub_0.mp3,audiovisual,1599.426128200008,1599.81513670001,1600.0152595000109,1600.0152595000109,1600.0154189666684,1610.0469100000046,1610.264228800006,1610.0471249999973,[],1610.1348555000004,1610.134895100011,None,1610.1349307000055,1610.1349540000083,None,,,,,,,,,,,,,,,,345,001,2026-04-02_14h49.37.145,exp_sofc,,2025.2.3,59.38171755831682,2026-04-02 14h49.38.177905 +0200,
,106,0,106,,,,,,,,,,,,,,,,,,,,,,None,None,,,,,,,,,,,,,106,0,106,0,1610.264228800006,,,,,,,,,,,,,,,,,,,,,,,,,,,,,,,,,,,,,,,,,,,,,,,clips/clip_claude_07_nosub_0.mp4,audios/clip_claude_07_nosub_0.mp3,audiovisual,1610.2590427000105,1610.6469885999977,1610.847441100006,1610.847441100006,1610.8471999666692,1620.863163800008,1621.0761344000057,1620.8634298999968,[],1620.9565912000107,1620.9566402000055,None,1620.9566782000038,1620.9566986999998,None,,,,,,,,,,,,,,,,345,001,2026-04-02_14h49.37.145,exp_sofc,,2025.2.3,59.38171755831682,2026-04-02 14h49.38.177905 +0200,
,107,0,107,,,,,,,,,,,,,,,,,,,,,,None,None,,,,,,,,,,,,,107,0,107,0,1621.0761344000057,,,,,,,,,,,,,,,,,,,,,,,,,,,,,,,,,,,,,,,,,,,,,,,clips/clip_holo_09_sub_2.mp4,audios/clip_holo_09_sub_2.mp3,audiovisual,1621.071714100006,1621.4605968000105,1621.6618561000068,1621.6618561000068,1621.6606472666647,,1633.2983344000095,1633.080974299999,[],1633.175473299998,1633.175535100003,None,1633.1756065000081,1633.1756422000035,None,,,,,,,,,,,,,,,,345,001,2026-04-02_14h49.37.145,exp_sofc,,2025.2.3,59.38171755831682,2026-04-02 14h49.38.177905 +0200,
,108,0,108,,,,,,,,,,,,,,,,,,,,,,None,None,,,,,,,,,,,,,108,0,108,0,1633.2983344000095,,,,,,,,,,,,,,,,,,,,,,,,,,,,,,,,,,,,,,,,,,,,,,,clips/clip_lied_15_sub_2.mp4,audios/clip_lied_15_sub_2.mp3,audiovisual,1633.292970200011,1633.678469999999,1633.8791064999969,1633.8791064999969,1633.8789566666712,,1641.4595524000033,1641.2413619,[3.383655700003146],1641.3359646000026,1641.336003400007,None,1641.3360313000012,1641.336050400001,None,,,,,,,,,,,,,,,,345,001,2026-04-02_14h49.37.145,exp_sofc,,2025.2.3,59.38171755831682,2026-04-02 14h49.38.177905 +0200,
,109,0,109,,,,,,,,,,,,,,,,,,,,,,None,None,,,,,,,,,,,,,109,0,109,0,1641.4595524000033,,,,,,,,,,,,,,,,,,,,,,,,,,,,,,,,,,,,,,,,,,,,,,,clips/clip_hund_36_nosub_2.mp4,audios/clip_hund_36_nosub_2.mp3,audiovisual,1641.4548066999996,1641.841648600006,1642.042968499998,1642.042968499998,1642.0421390666636,1651.4190562000003,1651.4190562000003,1651.2089596000005,[5.791071600004216],1651.304377499997,1651.304413500009,None,1651.3044541999989,1651.3045035999967,None,,,,,,,,,,,,,,,,345,001,2026-04-02_14h49.37.145,exp_sofc,,2025.2.3,59.38171755831682,2026-04-02 14h49.38.177905 +0200,
,110,0,110,,,,,,,,,,,,,,,,,,,,,,None,None,,,,,,,,,,,,,110,0,110,0,1651.4190562000003,,,,,,,,,,,,,,,,,,,,,,,,,,,,,,,,,,,,,,,,,,,,,,,clips/clip_herz_01_nosub_1.mp4,audios/clip_herz_01_nosub_1.mp3,audiovisual,1651.4155950999993,1651.804449400006,1652.0041457000043,1652.0041457000043,1652.004039466676,1662.830235100002,1662.830235100002,1662.6099515000096,[6.1317686999973375],1662.7093464000063,1662.7093800000002,None,1662.7094190000062,1662.7094592000067,None,,,,,,,,,,,,,,,,345,001,2026-04-02_14h49.37.145,exp_sofc,,2025.2.3,59.38171755831682,2026-04-02 14h49.38.177905 +0200,
,111,0,111,,,,,,,,,,,,,,,,,,,,,,None,None,,,,,,,,,,,,,111,0,111,0,1662.830235100002,,,,,,,,,,,,,,,,,,,,,,,,,,,,,,,,,,,,,,,,,,,,,,,clips/clip_hund_11_sub_1.mp4,audios/clip_hund_11_sub_1.mp3,audiovisual,1662.8250044000015,1663.2214759000053,1663.4219429000077,1663.4219429000077,1663.4214692666758,1673.1538849000062,1673.3549725000048,1673.154143000007,[6.309122599996044],1673.242387700011,1673.242456100008,None,1673.2424936000025,1673.242513899997,None,,,,,,,,,,,,,,,,345,001,2026-04-02_14h49.37.145,exp_sofc,,2025.2.3,59.38171755831682,2026-04-02 14h49.38.177905 +0200,
,112,0,112,,,,,,,,,,,,,,,,,,,,,,None,None,,,,,,,,,,,,,112,0,112,0,1673.3549725000048,,,,,,,,,,,,,,,,,,,,,,,,,,,,,,,,,,,,,,,,,,,,,,,clips/clip_wurst_24_sub_1.mp4,audios/silence.mp3,visual,1673.3507267000095,1673.7459518000105,1673.9465261000005,1673.9465261000005,1673.9463755666695,1675.198477500002,1685.4746577000042,1685.2648338,[],1685.3563225000107,1685.3563633000012,None,1685.3563929000084,1685.3564096000046,None,,,,,,,,,,,,,,,,345,001,2026-04-02_14h49.37.145,exp_sofc,,2025.2.3,59.38171755831682,2026-04-02 14h49.38.177905 +0200,
,113,0,113,,,,,,,,,,,,,,,,,,,,,,None,None,,,,,,,,,,,,,113,0,113,0,1685.4746577000042,,,,,,,,,,,,,,,,,,,,,,,,,,,,,,,,,,,,,,,,,,,,,,,clips/clip_hund_34_nosub_1.mp4,audios/clip_hund_34_nosub_1.mp3,audiovisual,1685.4692369999975,1685.8574522999988,1686.0579952999979,1686.0579952999979,1686.0579365666674,1696.4740646999999,1696.6918260000093,1696.4742442999996,[],1696.5812311000045,1696.581270499999,None,1696.5813102000102,1696.581338700009,None,,,,,,,,,,,,,,,,345,001,2026-04-02_14h49.37.145,exp_sofc,,2025.2.3,59.38171755831682,2026-04-02 14h49.38.177905 +0200,
,114,0,114,,,,,,,,,,,,,,,,,,,,,,None,None,,,,,,,,,,,,,114,0,114,0,1696.6918260000093,,,,,,,,,,,,,,,,,,,,,,,,,,,,,,,,,,,,,,,,,,,,,,,clips/clip_lied_02_sub_2.mp4,audios/silence.mp3,visual,1696.6862212999986,1697.092179500003,1697.2921881000075,1697.2921881000075,1697.2923825666696,1698.5437511000055,1708.5490468000062,1708.3259633999987,"[4.263383299999987, 9.634313699993072]",1708.4238794999983,1708.4239137999975,None,1708.4239495000074,1708.4239816000045,None,,,,,,,,,,,,,,,,345,001,2026-04-02_14h49.37.145,exp_sofc,,2025.2.3,59.38171755831682,2026-04-02 14h49.38.177905 +0200,
,115,0,115,,,,,,,,,,,,,,,,,,,,,,None,None,,,,,,,,,,,,,115,0,115,0,1708.5490468000062,,,,,,,,,,,,,,,,,,,,,,,,,,,,,,,,,,,,,,,,,,,,,,,clips/clip_holo_17_sub_0.mp4,audios/clip_holo_17_sub_0.mp3,audiovisual,1708.5452094000066,1708.9271009000076,1709.1273910000018,1709.1273910000018,1709.1269705666675,1718.9589947000059,1719.1618073999998,1718.9592469000054,[],1719.0507064999983,1719.0507936000067,None,1719.0508352000033,1719.0508531000087,None,,,,,,,,,,,,,,,,345,001,2026-04-02_14h49.37.145,exp_sofc,,2025.2.3,59.38171755831682,2026-04-02 14h49.38.177905 +0200,
,116,0,116,,,,,,,,,,,,,,,,,,,,,,1,None,3.509967300007702,None,,,,,,,,,,,116,0,116,0,1719.1618073999998,,,,,,,,,,,,,,,,,,,,,,,,,,,,,,,,,,,,,,,,,,,,,,,clips/clip_dampf_03_nosub_1.mp4,audios/silence.mp3,visual,1719.1575472999975,1719.5515084000072,1719.7521811000042,1719.7521811000042,1719.7518524666705,1721.0037770000054,1727.4920110000094,1727.3814908000058,[7.905192499994882],1727.4868972999975,1731.015287800008,1,1731.0153463000024,1731.0153722000105,None,1,1727.4920110000094,1727.4920110000094,1727.4920110000094,3.509967300007702,None,,,,,,,,,,345,001,2026-04-02_14h49.37.145,exp_sofc,,2025.2.3,59.38171755831682,2026-04-02 14h49.38.177905 +0200,
,117,0,117,,,,,,,,,,,,,,,,,,,,,,3,None,2.7380379999958677,None,,,,,,,,,,,117,0,117,0,1731.1373986000108,,,,,,,,,,,,,,,,,,,,,,,,,,,,,,,,,,,,,,,,,,,,,,,clips/clip_claude_01_nosub_2.mp4,audios/clip_claude_01_nosub_2.mp3,audiovisual,1731.132918000003,1731.5154179000092,1731.7163049000083,1731.7163049000083,1731.7163127666756,1742.806248400011,1742.806248400011,1742.6842230000038,[6.82952440000372],1742.800186499997,1745.554215000011,3,1745.5542775000067,1745.5543041000055,None,3,1742.806248400011,1742.806248400011,1742.806248400011,2.7380379999958677,None,,,,,,,,,,345,001,2026-04-02_14h49.37.145,exp_sofc,,2025.2.3,59.38171755831682,2026-04-02 14h49.38.177905 +0200,
,118,0,118,,,,,,,,,,,,,,,,,,,,,,None,None,,,,,,,,,,,,,118,0,118,0,1745.6897555000032,,,,,,,,,,,,,,,,,,,,,,,,,,,,,,,,,,,,,,,,,,,,,,,clips/clip_hund_01_sub_0.mp4,audios/clip_hund_01_sub_0.mp3,audiovisual,1745.6839310000069,1746.0580656000093,1746.273585300005,1746.2571157000057,1746.2566891666686,,1757.2549683000107,1757.0411735000089,[],1757.1286497999972,1757.1286841999972,None,1757.1287123000075,1757.1287288000021,None,,,,,,,,,,,,,,,,345,001,2026-04-02_14h49.37.145,exp_sofc,,2025.2.3,59.38171755831682,2026-04-02 14h49.38.177905 +0200,
,119,0,119,,,,,,,,,,,,,,,,,,,,,,1,space,3.7305441000062274,None,11.253594599998905,None,,,,,,,,,119,0,119,0,1757.2549683000107,,,,,,,,,,,,,,,,,,,,,,,,,,,,,,,,,,,,,,,,,,,,,,,clips/clip_wurst_16_nosub_0.mp4,audios/clip_wurst_16_nosub_0.mp3,audiovisual,1757.249953000006,1757.638082400008,1757.8383973000018,1757.8383973000018,1757.8382478666647,1767.8713351000042,1767.9715017999988,1767.8715288000094,[],1767.9678805000003,1771.7024059999967,1,1771.7024677000009,1782.9859859999997,space,1,1767.9715017999988,1767.9715017999988,1767.9715017999988,3.7305441000062274,None,1771.7183889000007,1771.7183889000007,1771.7183889000007,,,11.253594599998905,None,,,345,001,2026-04-02_14h49.37.145,exp_sofc,,2025.2.3,59.38171755831682,2026-04-02 14h49.38.177905 +0200,
,120,0,120,,,,,,,,,,,,,,,,,,,,,,None,None,,,,,,,,,,,,,120,0,120,0,1783.095198199997,,,,,,,,,,,,,,,,,,,,,,,,,,,,,,,,,,,,,,,,,,,,,,,clips/clip_claude_16_sub_1.mp4,audios/silence.mp3,visual,1783.0890526000003,1783.4956379000068,1783.6958161000075,1783.6958161000075,1783.695348866666,1784.9486255000083,1795.0959203000093,1794.8804149000061,[8.964260099994135],1794.9789123000082,1794.9789444000053,None,1794.978971500008,1794.9789870000095,None,,,,,,,,,,,,,,,,345,001,2026-04-02_14h49.37.145,exp_sofc,,2025.2.3,59.38171755831682,2026-04-02 14h49.38.177905 +0200,
,121,0,121,,,,,,,,,,,,,,,,,,,,,,None,None,,,,,,,,,,,,,121,0,121,0,1795.0959203000093,,,,,,,,,,,,,,,,,,,,,,,,,,,,,,,,,,,,,,,,,,,,,,,clips/clip_lied_14_sub_0.mp4,audios/clip_lied_14_sub_0.mp3,audiovisual,1795.0913495999994,1795.479365200008,1795.6801013000077,1795.6801013000077,1795.6796877666677,,1805.5892687000014,1805.3790239000082,[],1805.4708077999967,1805.470842900002,None,1805.4708771000005,1805.4709071999969,None,,,,,,,,,,,,,,,,345,001,2026-04-02_14h49.37.145,exp_sofc,,2025.2.3,59.38171755831682,2026-04-02 14h49.38.177905 +0200,
,122,0,122,,,,,,,,,,,,,,,,,,,,,,None,None,,,,,,,,,,,,,122,0,122,0,1805.5892687000014,,,,,,,,,,,,,,,,,,,,,,,,,,,,,,,,,,,,,,,,,,,,,,,clips/clip_wurst_27_nosub_1.mp4,audios/clip_wurst_27_nosub_1.mp3,audiovisual,1805.5844625000027,1805.9728598000074,1806.1739363000088,1806.1739363000088,1806.173040066675,,1816.5601068000105,1816.3778248000017,[5.992724499999895],1816.462751500003,1816.4628092000057,None,1816.4628749999974,1816.4629060000007,None,,,,,,,,,,,,,,,,345,001,2026-04-02_14h49.37.145,exp_sofc,,2025.2.3,59.38171755831682,2026-04-02 14h49.38.177905 +0200,
,123,0,123,,,,,,,,,,,,,,,,,,,,,,None,None,,,,,,,,,,,,,123,0,123,0,1816.5601068000105,,,,,,,,,,,,,,,,,,,,,,,,,,,,,,,,,,,,,,,,,,,,,,,clips/clip_wurst_17_nosub_0.mp4,audios/silence.mp3,visual,1816.5542457999982,1816.9766423999972,1817.17687570001,1817.17687570001,1817.176768466674,1818.4292409000045,1825.3899910000036,1825.206440599999,[],1825.2973851999996,1825.297462100003,None,1825.297509000011,1825.2975263999979,None,,,,,,,,,,,,,,,,345,001,2026-04-02_14h49.37.145,exp_sofc,,2025.2.3,59.38171755831682,2026-04-02 14h49.38.177905 +0200,
,124,0,124,,,,,,,,,,,,,,,,,,,,,,None,None,,,,,,,,,,,,,124,0,124,0,1825.3899910000036,,,,,,,,,,,,,,,,,,,,,,,,,,,,,,,,,,,,,,,,,,,,,,,clips/clip_lied_01_sub_1.mp4,audios/silence.mp3,visual,1825.3842665999982,1825.8066038000106,1826.0074343000015,1826.0074343000015,1826.0073648666769,1827.26018930001,1836.230801400001,1836.0404505000042,[5.165150099986931],1836.1311901000008,1836.131256400011,None,1836.1313109000039,1836.1313291999977,None,,,,,,,,,,,,,,,,345,001,2026-04-02_14h49.37.145,exp_sofc,,2025.2.3,59.38171755831682,2026-04-02 14h49.38.177905 +0200,
,125,0,125,,,,,,,,,,,,,,,,,,,,,,2,None,5.388159099995391,None,,,,,,,,,,,125,0,125,0,1836.230801400001,,,,,,,,,,,,,,,,,,,,,,,,,,,,,,,,,,,,,,,,,,,,,,,clips/clip_claude_18_sub_0.mp4,audios/silence.mp3,visual,1836.2251528000052,1836.6309452999994,1836.8313157000084,1836.8313157000084,1836.8312722666635,1838.0827272000024,1845.9529233000067,1845.8623040000093,[],1845.9480324000033,1851.3454567000008,2,1851.3455157999997,1851.345541200004,None,4,1845.9529233000067,1845.9529233000067,1845.9529233000067,5.388159099995391,None,,,,,,,,,,345,001,2026-04-02_14h49.37.145,exp_sofc,,2025.2.3,59.38171755831682,2026-04-02 14h49.38.177905 +0200,
,126,0,126,,,,,,,,,,,,,,,,,,,,,,None,None,,,,,,,,,,,,,126,0,126,0,1851.442835000009,,,,,,,,,,,,,,,,,,,,,,,,,,,,,,,,,,,,,,,,,,,,,,,clips/clip_wurst_03_nosub_1.mp4,audios/silence.mp3,visual,1851.4373988000007,1851.854045900007,1852.0547522999987,1852.0547522999987,1852.054637866666,1853.3074457000039,1864.188125200002,1863.9738248000067,[4.288034199998947],1864.0656847000064,1864.0657173000072,None,1864.065744300009,1864.0657595000084,None,,,,,,,,,,,,,,,,345,001,2026-04-02_14h49.37.145,exp_sofc,,2025.2.3,59.38171755831682,2026-04-02 14h49.38.177905 +0200,
,127,0,127,,,,,,,,,,,,,,,,,,,,,,None,None,,,,,,,,,,,,,127,0,127,0,1864.188125200002,,,,,,,,,,,,,,,,,,,,,,,,,,,,,,,,,,,,,,,,,,,,,,,clips/clip_weißt_11_nosub_0.mp4,audios/clip_weißt_11_nosub_0.mp3,audiovisual,1864.1829018999997,1864.5713055000087,1864.7716120999976,1864.7716120999976,1864.7717108666732,1874.8047622000013,1875.035970500001,1874.8049601000093,[],1874.9044989999966,1874.9045344000042,None,1874.9045697999973,1874.9045922000078,None,,,,,,,,,,,,,,,,345,001,2026-04-02_14h49.37.145,exp_sofc,,2025.2.3,59.38171755831682,2026-04-02 14h49.38.177905 +0200,
,128,0,128,,,,,,,,,,,,,,,,,,,,,,None,None,,,,,,,,,,,,,128,0,128,0,1875.035970500001,,,,,,,,,,,,,,,,,,,,,,,,,,,,,,,,,,,,,,,,,,,,,,,clips/clip_wurst_21_sub_0.mp4,audios/clip_wurst_21_sub_0.mp3,audiovisual,1875.0323380000045,1875.4044953999983,1875.6050688000105,1875.6050688000105,1875.6049591666708,1886.1382060000033,1886.348077200004,1886.138340400008,[],1886.220716900003,1886.2207669000054,None,1886.2208126000041,1886.2208286000096,None,,,,,,,,,,,,,,,,345,001,2026-04-02_14h49.37.145,exp_sofc,,2025.2.3,59.38171755831682,2026-04-02 14h49.38.177905 +0200,
,129,0,129,,,,,,,,,,,,,,,,,,,,,,None,None,,,,,,,,,,,,,129,0,129,0,1886.348077200004,,,,,,,,,,,,,,,,,,,,,,,,,,,,,,,,,,,,,,,,,,,,,,,clips/clip_hund_03_nosub_1.mp4,audios/clip_hund_03_nosub_1.mp3,audiovisual,1886.3438956000027,1886.7328809000028,1886.932651199997,1886.932651199997,1886.9326603666743,,1899.0272694000014,1898.8350101000105,[6.699111399997491],1898.9292872000078,1898.9293227000016,None,1898.9293747000047,1898.9294140999991,None,,,,,,,,,,,,,,,,345,001,2026-04-02_14h49.37.145,exp_sofc,,2025.2.3,59.38171755831682,2026-04-02 14h49.38.177905 +0200,
,130,0,130,,,,,,,,,,,,,,,,,,,,,,None,None,,,,,,,,,,,,,130,0,130,0,1899.0272694000014,,,,,,,,,,,,,,,,,,,,,,,,,,,,,,,,,,,,,,,,,,,,,,,clips/clip_lied_18_sub_2.mp4,audios/silence.mp3,visual,1899.0224654000049,1899.4435041999968,1899.6440728000016,1899.6440728000016,1899.6436496666759,1900.8960711000109,1910.5582986000081,1910.326969200003,"[5.658758899997338, 7.9990687999961665]",1910.425213399998,1910.4253079000046,None,1910.4253683999996,1910.425403500005,None,,,,,,,,,,,,,,,,345,001,2026-04-02_14h49.37.145,exp_sofc,,2025.2.3,59.38171755831682,2026-04-02 14h49.38.177905 +0200,
,131,0,131,,,,,,,,,,,,,,,,,,,,,,None,None,,,,,,,,,,,,,131,0,131,0,1910.5582986000081,,,,,,,,,,,,,,,,,,,,,,,,,,,,,,,,,,,,,,,,,,,,,,,clips/clip_weißt_17_sub_0.mp4,audios/clip_weißt_17_sub_0.mp3,audiovisual,1910.554541800011,1910.9283320000104,1911.1286611999967,1911.1286611999967,1911.1288061666748,1922.8445152000058,1922.8445152000058,1922.6463574000081,[],1922.7403468999983,1922.7403854000004,None,1922.740414800006,1922.7404330999998,None,,,,,,,,,,,,,,,,345,001,2026-04-02_14h49.37.145,exp_sofc,,2025.2.3,59.38171755831682,2026-04-02 14h49.38.177905 +0200,
,132,0,132,,,,,,,,,,,,,,,,,,,,,,None,None,,,,,,,,,,,,,132,0,132,0,1922.8445152000058,,,,,,,,,,,,,,,,,,,,,,,,,,,,,,,,,,,,,,,,,,,,,,,clips/clip_wurst_35_sub_0.mp4,audios/silence.mp3,visual,1922.8388840999978,1923.2562012999988,1923.4559906000068,1923.4395134000079,1923.439538566676,1924.6909314000077,1932.9238640999974,1932.7368610999984,[],1932.8219258000026,1932.8219621000026,None,1932.8220407000044,1932.8220729000022,None,,,,,,,,,,,,,,,,345,001,2026-04-02_14h49.37.145,exp_sofc,,2025.2.3,59.38171755831682,2026-04-02 14h49.38.177905 +0200,
,133,0,133,,,,,,,,,,,,,,,,,,,,,,None,None,,,,,,,,,,,,,133,0,133,0,1932.9238640999974,,,,,,,,,,,,,,,,,,,,,,,,,,,,,,,,,,,,,,,,,,,,,,,clips/clip_herz_10_sub_0.mp4,audios/silence.mp3,visual,1932.9197255000036,1933.3249058000074,1933.5263089000073,1933.5263089000073,1933.5255434666653,1934.7774791999982,1943.7759101999982,1943.5431263000064,[],1943.642101800011,1943.6421482000005,None,1943.6421916000108,1943.6422179000074,None,,,,,,,,,,,,,,,,345,001,2026-04-02_14h49.37.145,exp_sofc,,2025.2.3,59.38171755831682,2026-04-02 14h49.38.177905 +0200,
,134,0,134,,,,,,,,,,,,,,,,,,,,,,None,None,,,,,,,,,,,,,134,0,134,0,1943.7759101999982,,,,,,,,,,,,,,,,,,,,,,,,,,,,,,,,,,,,,,,,,,,,,,,clips/clip_hund_23_sub_1.mp4,audios/silence.mp3,visual,1943.7700482000073,1944.142506300006,1944.3433487000002,1944.3433487000002,1944.342559566667,1945.595619700005,1955.471569500005,1955.260588300007,[2.6256210999999894],1955.356425799997,1955.3564613000053,None,1955.3565131000069,1955.3565425999986,None,,,,,,,,,,,,,,,,345,001,2026-04-02_14h49.37.145,exp_sofc,,2025.2.3,59.38171755831682,2026-04-02 14h49.38.177905 +0200,
,135,0,135,,,,,,,,,,,,,,,,,,,,,,None,None,,,,,,,,,,,,,135,0,135,0,1955.471569500005,,,,,,,,,,,,,,,,,,,,,,,,,,,,,,,,,,,,,,,,,,,,,,,clips/clip_holo_05_nosub_2.mp4,audios/clip_holo_05_nosub_2.mp3,audiovisual,1955.467639800001,1955.856353199997,1956.056393100007,1956.056393100007,1956.056493766668,1965.1880384000106,1965.3931280000106,1965.1882628000021,[6.978743699990446],1965.2821590000094,1965.2822427000065,None,1965.28230050001,1965.2823249000066,None,,,,,,,,,,,,,,,,345,001,2026-04-02_14h49.37.145,exp_sofc,,2025.2.3,59.38171755831682,2026-04-02 14h49.38.177905 +0200,
,136,0,136,,,,,,,,,,,,,,,,,,,,,,None,None,,,,,,,,,,,,,136,0,136,0,1965.3931280000106,,,,,,,,,,,,,,,,,,,,,,,,,,,,,,,,,,,,,,,,,,,,,,,clips/clip_holo_24_nosub_2.mp4,audios/silence.mp3,visual,1965.387459999998,1965.796180999998,1965.996831299999,1965.996831299999,1965.996752266674,1967.2485851000092,1976.0241909000033,1975.8297068000102,"[7.094253500006744, 9.706268900001305]",1975.9265214000043,1975.9265904000058,None,1975.9266449999996,1975.9266811999987,None,,,,,,,,,,,,,,,,345,001,2026-04-02_14h49.37.145,exp_sofc,,2025.2.3,59.38171755831682,2026-04-02 14h49.38.177905 +0200,
,137,0,137,,,,,,,,,,,,,,,,,,,,,,1,None,7.154663499997696,None,,,,,,,,,,,137,0,137,0,1976.0241909000033,,,,,,,,,,,,,,,,,,,,,,,,,,,,,,,,,,,,,,,,,,,,,,,clips/clip_wurst_34_nosub_2.mp4,audios/silence.mp3,visual,1976.018485499997,1976.4377448000014,1976.638411100008,1976.638411100008,1976.6380399666707,1977.8900572999992,1985.2724592000013,1985.1690864999982,"[4.149981399998069, 6.25175450000097]",1985.2686461999983,1992.4380463999987,1,1992.438093500008,1992.4381109000096,None,1,1985.2724592000013,1985.2724592000013,1985.2724592000013,7.154663499997696,None,,,,,,,,,,345,001,2026-04-02_14h49.37.145,exp_sofc,,2025.2.3,59.38171755831682,2026-04-02 14h49.38.177905 +0200,
,138,0,138,,,,,,,,,,,,,,,,,,,,,,4,None,3.295385699995677,None,,,,,,,,,,,138,0,138,0,1992.5621151000087,,,,,,,,,,,,,,,,,,,,,,,,,,,,,,,,,,,,,,,,,,,,,,,clips/clip_claude_27_nosub_0.mp4,audios/clip_claude_27_nosub_0.mp3,audiovisual,1992.5570176000037,1992.938427400004,1993.1389965999988,1993.1389965999988,1993.1388239666742,2005.1575212000025,2005.2632439000008,2005.157653400005,[],2005.2577286000014,2008.571451900003,4,2008.5715096000058,2008.5715337000001,None,3,2005.2632439000008,2005.2632439000008,2005.2632439000008,3.295385699995677,None,,,,,,,,,,345,001,2026-04-02_14h49.37.145,exp_sofc,,2025.2.3,59.38171755831682,2026-04-02 14h49.38.177905 +0200,
,139,0,139,,,,,,,,,,,,,,,,,,,,,,None,None,,,,,,,,,,,,,139,0,139,0,2008.6824370000104,,,,,,,,,,,,,,,,,,,,,,,,,,,,,,,,,,,,,,,,,,,,,,,clips/clip_weißt_28_sub_1.mp4,audios/silence.mp3,visual,2008.6762451000104,2009.0829344000085,2009.2827500999992,2009.2827500999992,2009.2823633666742,2010.535708100011,2019.6130586000072,2019.3669989000045,"[2.1145473000069614, 6.92719180000131]",2019.4692361000052,2019.4692778000026,None,2019.4693119000003,2019.4693308999995,None,,,,,,,,,,,,,,,,345,001,2026-04-02_14h49.37.145,exp_sofc,,2025.2.3,59.38171755831682,2026-04-02 14h49.38.177905 +0200,
,140,0,140,,,,,,,,,,,,,,,,,,,,,,None,None,,,,,,,,,,,,,140,0,140,0,2019.6130586000072,,,,,,,,,,,,,,,,,,,,,,,,,,,,,,,,,,,,,,,,,,,,,,,clips/clip_weißt_01_sub_1.mp4,audios/clip_weißt_01_sub_1.mp3,audiovisual,2019.6074882000103,2019.975767099997,2020.176225400006,2020.176225400006,2020.1761685666754,2031.2089269999997,2031.396521200004,2031.209107600007,[6.085166399992886],2031.2828977000026,2031.2829469999997,None,2031.2829857000033,2031.2830078999978,None,,,,,,,,,,,,,,,,345,001,2026-04-02_14h49.37.145,exp_sofc,,2025.2.3,59.38171755831682,2026-04-02 14h49.38.177905 +0200,
,141,0,141,,,,,,,,,,,,,,,,,,,,,,None,None,,,,,,,,,,,,,141,0,141,0,2031.396521200004,,,,,,,,,,,,,,,,,,,,,,,,,,,,,,,,,,,,,,,,,,,,,,,clips/clip_lied_07_sub_1.mp4,audios/clip_lied_07_sub_1.mp3,audiovisual,2031.3917169000051,2031.796540100011,2031.9971205000038,2031.9971205000038,2031.9967519666718,2041.0285977000021,2041.2125893000048,2041.0288159000047,[4.597874199986109],2041.1140072999988,2041.114043499998,None,2041.1140946000087,2041.1141394000006,None,,,,,,,,,,,,,,,,345,001,2026-04-02_14h49.37.145,exp_sofc,,2025.2.3,59.38171755831682,2026-04-02 14h49.38.177905 +0200,
,142,0,142,,,,,,,,,,,,,,,,,,,,,,None,None,,,,,,,,,,,,,142,0,142,0,2041.2125893000048,,,,,,,,,,,,,,,,,,,,,,,,,,,,,,,,,,,,,,,,,,,,,,,clips/clip_herz_09_sub_0.mp4,audios/silence.mp3,visual,2041.206583600011,2041.6287324000004,2041.8296740000078,2041.8296740000078,2041.8288553666682,2043.0810799000028,2053.543146099997,2053.347508000006,[],2053.446781000006,2053.4468683000014,None,2053.446903300006,2053.4469222000043,None,,,,,,,,,,,,,,,,345,001,2026-04-02_14h49.37.145,exp_sofc,,2025.2.3,59.38171755831682,2026-04-02 14h49.38.177905 +0200,
,143,0,143,,,,,,,,,,,,,,,,,,,,,,None,None,,,,,,,,,,,,,143,0,143,0,2053.543146099997,,,,,,,,,,,,,,,,,,,,,,,,,,,,,,,,,,,,,,,,,,,,,,,clips/clip_wurst_18_nosub_0.mp4,audios/silence.mp3,visual,2053.5371723999997,2053.956672100001,2054.1565617000015,2054.1565617000015,2054.1566079666704,2055.4089559999993,2064.399576099997,2064.18907030001,[],2064.282114200003,2064.282149000006,None,2064.2822022000037,2064.282239200009,None,,,,,,,,,,,,,,,,345,001,2026-04-02_14h49.37.145,exp_sofc,,2025.2.3,59.38171755831682,2026-04-02 14h49.38.177905 +0200,
,144,0,144,,,,,,,,,,,,,,,,,,,,,,None,None,,,,,,,,,,,,,144,0,144,0,2064.399576099997,,,,,,,,,,,,,,,,,,,,,,,,,,,,,,,,,,,,,,,,,,,,,,,clips/clip_hund_19_sub_0.mp4,audios/clip_hund_19_sub_0.mp3,audiovisual,2064.3958771000034,2064.7841888999974,2064.9850102000055,2064.9850102000055,2064.985031666675,,2076.54164950001,2076.336717099999,[],2076.4219529999973,2076.4219937000016,None,2076.42203300001,2076.4220523999975,None,,,,,,,,,,,,,,,,345,001,2026-04-02_14h49.37.145,exp_sofc,,2025.2.3,59.38171755831682,2026-04-02 14h49.38.177905 +0200,
