instruction_text,thisN,thisTrialN,thisRepN,key_resp_instruction.keys,key_resp_instruction.rt,key_resp_instruction.duration,clip_file,clip_path,sound_path,movie,subtitles,n_cut,clip_num,first_cut,second_cut,clip_duration,attention_check_question,attention_check_correct,attention_check_distractor_1,attention_check_distractor_2,attention_check_distractor_3,prac_attention_resp.keys,prac_attention_resp.rt,prac_attention_resp.duration,exp_atttention_resp.keys,exp_pause_resp.keys,exp_atttention_resp.rt,exp_atttention_resp.duration,exp_pause_resp.rt,exp_pause_resp.duration,instruction_trials.thisRepN,instruction_trials.thisTrialN,instruction_trials.thisN,instruction_trials.thisIndex,practice_trials.thisRepN,practice_trials.thisTrialN,practice_trials.thisN,practice_trials.thisIndex,experiment_trials.thisRepN,experiment_trials.thisTrialN,experiment_trials.thisN,experiment_trials.thisIndex,thisRow.t,notes,assigned_ls_group,instructions.started,text_instruction.started,key_resp_instruction.started,instructions.stopped,instruction_trials.key_resp_instruction.keys,instruction_trials.key_resp_instruction.rt,instruction_trials.key_resp_instruction.duration,informed_consent.started,slider_informed_consent.started,text_informed_consent.started,informed_consent.stopped,slider_informed_consent.response,slider_informed_consent.rt,begin_practice.started,begin_practice_text.started,begin_practice.stopped,Practice_clip_name,Practice_video_used,Practice_audio_used,Practice_modality,Practice_subtitles,Practice_attention_check,practice_clip.started,prac_feedback.started,prac_fixation_cross.started,prac_fixation_cross.stopped,prac_clip.started,prac_sound.started,prac_sound.stopped,prac_clip.stopped,practice_clip.stopped,Practice_all_cut_rts,practice_attention_check.started,practice_attention_check.stopped,practice_trials.prac_attention_resp.keys,Practice_correct_key_required,prac_attention_resp.started,prac_question.started,prac_options.started,practice_trials.prac_attention_resp.rt,practice_trials.prac_attention_resp.duration,begin_experiment.started,begin_experiment_text.started,begin_experiment_text.stopped,begin_experiment.stopped,video_used,audio_used,condition_modality,experiment_clip.started,exp_fixation_cross.started,exp_fixation_cross.stopped,exp_clip.started,exp_sound.started,exp_clip.stopped,exp_sound.stopped,experiment_clip.stopped,all_cut_rts,experiment_attention_check.started,experiment_attention_check.stopped,experiment_trials.exp_atttention_resp.keys,experiment_pause.started,experiment_pause.stopped,experiment_trials.exp_pause_resp.keys,correct_key_required,exp_atttention_resp.started,exp_question.started,exp_options.started,experiment_trials.exp_atttention_resp.rt,experiment_trials.exp_atttention_resp.duration,exp_pause_text.started,exp_pause_resp.started,exp_countdown.started,experiment_trials.exp_pause_resp.rt,experiment_trials.exp_pause_resp.duration,participant,session,date,expName,expVersion,psychopyVersion,frameRate,expStart,
"Herzlich willkommen!

Vielen Dank, dass Sie an unserer Studie teilnehmen. Die Untersuchung wird insgesamt etwa 35 Minuten in Anspruch nehmen.

Bevor wir beginnen, beachten Sie bitte folgende Voraussetzungen für die Teilnahme:
• Sie sind mindestens 18 Jahre alt.
• Ihre Muttersprache ist Deutsch.

(Drücken Sie die Leertaste, um fortzufahren)",0,0,0,space,0.7461016999732237,None,,,,,,,,,,,,,,,,,,,,,,,,,0,0,0,0,,,,,,,,,0.043359899980714545,,1,0.017378099990310147,0.043359899980714545,0.043359899980714545,0.8035674999991897,space,0.7461016999732237,None,,,,,,,,,,,,,,,,,,,,,,,,,,,,,,,,,,,,,,,,,,,,,,,,,,,,,,,,,,,,,,,,,,,,399,001,2026-03-30_13h59.33.957,exp_sofc,,2025.2.3,60.17111461228291,2026-03-30 13h59.34.470049 +0200,
"Ablauf der Studie

Ihnen werden in schneller Abfolge viele kurze Filmclips gezeigt.
Ihre Aufgabe ist einfach:

Drücken Sie jedes Mal die Leertaste, wenn Sie einen Filmschnitt (Cut) erkennen.

Zusätzlich werden Ihnen gelegentlich kurze Verständnisfragen zu den gezeigten Clips gestellt.

(Drücken Sie die Leertaste, um fortzufahren),",1,1,0,space,0.17776530000264756,None,,,,,,,,,,,,,,,,,,,,,,,,,0,1,1,1,,,,,,,,,0.8242571000009775,,,0.8036724999838043,0.8242571000009775,0.8242571000009775,1.0173398999904748,space,0.17776530000264756,None,,,,,,,,,,,,,,,,,,,,,,,,,,,,,,,,,,,,,,,,,,,,,,,,,,,,,,,,,,,,,,,,,,,,399,001,2026-03-30_13h59.33.957,exp_sofc,,2025.2.3,60.17111461228291,2026-03-30 13h59.34.470049 +0200,
"Freiwilligkeit Ihrer Teilnahme

Ihre Teilnahme an dieser Studie ist absolut freiwillig. Sie können das Experiment jederzeit und ohne Angabe von Gründen abbrechen, ohne dass Ihnen daraus irgendwelche Nachteile entstehen.

Sollten Sie die Studie vorzeitig beenden, werden Ihre bis dahin erhobenen Daten umgehend gelöscht und nicht gespeichert.

(Drücken Sie die Leertaste, um fortzufahren)",2,2,0,space,0.24674670002423227,None,,,,,,,,,,,,,,,,,,,,,,,,,0,2,2,2,,,,,,,,,1.1022453999903519,,,1.0174638999742456,1.1022453999903519,1.1022453999903519,1.353643499984173,space,0.24674670002423227,None,,,,,,,,,,,,,,,,,,,,,,,,,,,,,,,,,,,,,,,,,,,,,,,,,,,,,,,,,,,,,,,,,,,,399,001,2026-03-30_13h59.33.957,exp_sofc,,2025.2.3,60.17111461228291,2026-03-30 13h59.34.470049 +0200,
"Datenschutz und Anonymität

Die Erhebung und Auswertung Ihrer Daten erfolgt am Fachbereich Psychologie der Universität Tübingen und ist vollständig anonym. Ihr Name wird zu keinem Zeitpunkt erfragt oder gespeichert. Niemand wird Ihre Daten mit Ihrer Person in Verbindung bringen können.

Die anonymisierten Experimentaldaten werden nach Abschluss der Erhebung für mindestens 10 Jahre gespeichert und zu Forschungszwecken in einer öffentlichen Datenbank zugänglich gemacht.

(Drücken Sie die Leertaste, um fortzufahren),",3,3,0,space,0.43695000000298023,None,,,,,,,,,,,,,,,,,,,,,,,,,0,3,3,3,,,,,,,,,1.383219499984989,,,1.3537437999912072,1.383219499984989,1.383219499984989,1.8207649999822024,space,0.43695000000298023,None,,,,,,,,,,,,,,,,,,,,,,,,,,,,,,,,,,,,,,,,,,,,,,,,,,,,,,,,,,,,,,,,,,,,399,001,2026-03-30_13h59.33.957,exp_sofc,,2025.2.3,60.17111461228291,2026-03-30 13h59.34.470049 +0200,
"Einverständniserklärung

Bitte lesen Sie die folgende Erklärung aufmerksam durch:

Ich bestätige, dass ich über 18 Jahre alt bin und ausreichend Zeit hatte, mich für die Teilnahme zu entscheiden. Ich wurde über die Erhebung, Verarbeitung und öffentliche Zugänglichmachung meiner anonymisierten Daten angemessen informiert.
Ich bin mir bewusst, dass ich das Experiment jederzeit abbrechen kann.

(Drücken Sie die Leertaste, um fortzufahren)",4,4,0,space,0.41894390000379644,None,,,,,,,,,,,,,,,,,,,,,,,,,0,4,4,4,,,,,,,,,1.8440823999990243,,,1.8208694999921136,1.8440823999990243,1.8440823999990243,2.271844599978067,space,0.41894390000379644,None,,,,,,,,,,,,,,,,,,,,,,,,,,,,,,,,,,,,,,,,,,,,,,,,,,,,,,,,,,,,,,,,,,,,399,001,2026-03-30_13h59.33.957,exp_sofc,,2025.2.3,60.17111461228291,2026-03-30 13h59.34.470049 +0200,
,,,,,,,,,,,,,,,,,,,,,,,,,,,,,,,,,,,,,,,,,,,,,,,,,,,,,2.273047399998177,2.2881737999850884,2.2881737999850884,3.7409025999950245,ich stimme zu,1.451988299988443,,,,,,,,,,,,,,,,,,,,,,,,,,,,,,,,,,,,,,,,,,,,,,,,,,,,,,,,,,,,,,399,001,2026-03-30_13h59.33.957,exp_sofc,,2025.2.3,60.17111461228291,2026-03-30 13h59.34.470049 +0200,
,,,,,,,,,,,,,,,,,,,,,,,,,,,,,,,,,,,,,,,,,,,,,,,,,,,,,,,,,,,3.7409468999831006,3.7574676999938674,8.748878099984722,,,,,,,,,,,,,,,,,,,,,,,,,,,,,,,,,,,,,,,,,,,,,,,,,,,,,,,,,,,399,001,2026-03-30_13h59.33.957,exp_sofc,,2025.2.3,60.17111461228291,2026-03-30 13h59.34.470049 +0200,
,0,0,0,,,,clip_hund_25_sub_1,clips/clip_hund_25_sub_1.mp4,audios/silence.mp3,hund,sub,1,25,5466.0,NA,8300,Mit was essen die Personen?,mit ihren Händen,mit Messer und Gabel,mit Stäbchen,mit einem Löffel,None,,,,,,,,,,,,,0,0,0,11,,,,,8.904312599974219,,,,,,,,,,,,,,,,,,,clip_hund_31_sub_0,clips/clip_hund_31_sub_0.mp4,audios/silence.mp3,visual,sub,False,8.897147399984533,8.904312599974219,9.241438299999572,9.441142199997557,9.441142199997557,9.441587466663139,10.693361899990123,18.116450100002112,17.905308499990497,[3.162406999996165],18.00276419997681,18.002814199979184,None,,,,,,,,,,,,,,,,,,,,,,,,,,,,,,,,,,,,,,,,399,001,2026-03-30_13h59.33.957,exp_sofc,,2025.2.3,60.17111461228291,2026-03-30 13h59.34.470049 +0200,
,1,1,0,,,,clip_weißt_05_sub_0,clips/clip_weißt_05_sub_0.mp4,audios/clip_weißt_05_sub_0.mp3,weißt,sub,0,5,NA,NA,9767,Wer trägt die Leiter?,die Frau,der Mann,beide,keiner,3,1.5982436999911442,None,,,,,,,,,,,0,1,1,0,,,,,18.116450100002112,,,,,,,,,,,,,,,,,,,clip_hund_26_sub_1,clips/clip_hund_26_sub_1.mp4,audios/silence.mp3,visual,sub,True,18.108956099982606,18.116450100002112,18.517688799998723,18.716952299990226,18.716952299990226,18.717267266653167,19.97014669998316,28.18976300000213,28.083768599986797,[],28.183124299976043,29.792777800001204,3,3,28.18976300000213,28.18976300000213,28.18976300000213,1.5982436999911442,None,,,,,,,,,,,,,,,,,,,,,,,,,,,,,,,,,,399,001,2026-03-30_13h59.33.957,exp_sofc,,2025.2.3,60.17111461228291,2026-03-30 13h59.34.470049 +0200,
,2,2,0,,,,clip_hund_31_sub_0,clips/clip_hund_31_sub_0.mp4,audios/silence.mp3,hund,sub,1,31,1966.0,NA,8433,Welche Tageszeit ist es?,abends,morgens,mittags,nachts,None,,,,,,,,,,,,,0,2,2,9,,,,,29.932646899978863,,,,,,,,,,,,,,,,,,,clip_hund_28_nosub_0,clips/clip_hund_28_nosub_0.mp4,audios/clip_hund_28_nosub_0.mp3,audiovisual,nosub,False,29.925820399977965,29.932646899978863,30.299745399999665,30.4998087999993,30.4998087999993,30.498974466642053,40.61397710000165,40.61397710000165,40.36994139998569,[],40.471258099976694,40.47128909997991,None,,,,,,,,,,,,,,,,,,,,,,,,,,,,,,,,,,,,,,,,399,001,2026-03-30_13h59.33.957,exp_sofc,,2025.2.3,60.17111461228291,2026-03-30 13h59.34.470049 +0200,
,3,3,0,,,,clip_wurst_09_sub_1,clips/clip_wurst_09_sub_1.mp4,audios/clip_wurst_09_sub_1.mp3,wurst,sub,1,9,3666.0,NA,11267,Wer sind die alten Menschen wahrscheinlich?,Großeltern,Eltern,Geschwister,Nachbarn,None,,,,,,,,,,,,,0,3,3,10,,,,,40.61397710000165,,,,,,,,,,,,,,,,,,,clip_hund_02_sub_1,clips/clip_hund_02_sub_1.mp4,audios/clip_hund_02_sub_1.mp3,audiovisual,sub,False,40.608083599974634,40.61397710000165,40.974558699992485,41.17440709998482,41.17440709998482,41.1749770666686,51.10604220000096,51.35720139998011,51.10815429998911,[9.525377000012668],51.216076799988514,51.216159999981755,None,,,,,,,,,,,,,,,,,,,,,,,,,,,,,,,,,,,,,,,,399,001,2026-03-30_13h59.33.957,exp_sofc,,2025.2.3,60.17111461228291,2026-03-30 13h59.34.470049 +0200,
,4,4,0,,,,clip_weißt_09_sub_1,clips/clip_weißt_09_sub_1.mp4,audios/silence.mp3,weißt,sub,1,9,4866.0,NA,9000,Was macht die Frau?,sie wickelt ein Band auf,sie näht,sie strickt,sie faltet Wäsche,None,,,,,,,,,,,,,0,4,4,5,,,,,51.35720139998011,,,,,,,,,,,,,,,,,,,clip_weißt_10_nosub_1,clips/clip_weißt_10_nosub_1.mp4,audios/clip_weißt_10_nosub_1.mp3,audiovisual,nosub,False,51.35000249999575,51.35720139998011,51.71600590000162,51.917016899999,51.917016899999,51.91636526666504,63.18756289998419,63.18756289998419,62.934127199987415,[6.054566299979342],63.03140629999689,63.03143829997862,None,,,,,,,,,,,,,,,,,,,,,,,,,,,,,,,,,,,,,,,,399,001,2026-03-30_13h59.33.957,exp_sofc,,2025.2.3,60.17111461228291,2026-03-30 13h59.34.470049 +0200,
,5,5,0,,,,clip_weißt_18_nosub_1,clips/clip_weißt_18_nosub_1.mp4,audios/silence.mp3,weißt,nosub,1,18,5680.0,NA,12000,Wie wirken die Personen?,überrascht,wütend,verzweifelt,gelangweilt,None,,,,,,,,,,,,,0,5,5,7,,,,,63.18756289998419,,,,,,,,,,,,,,,,,,,clip_hund_06_nosub_0,clips/clip_hund_06_nosub_0.mp4,audios/clip_hund_06_nosub_0.mp3,audiovisual,nosub,False,63.18024109999533,63.18756289998419,63.54315499999211,63.74325199998566,63.74325199998566,63.74316356666192,,74.84082169999601,74.62677919998532,[],74.72058379999362,74.72061559997383,None,,,,,,,,,,,,,,,,,,,,,,,,,,,,,,,,,,,,,,,,399,001,2026-03-30_13h59.33.957,exp_sofc,,2025.2.3,60.17111461228291,2026-03-30 13h59.34.470049 +0200,
,6,6,0,,,,clip_weißt_21_nosub_0,clips/clip_weißt_21_nosub_0.mp4,audios/silence.mp3,weißt,nosub,0,21,NA,NA,10080,Wo stehen die Personen?,am Balkongeländer,am Strand,an einer Bushaltestelle,im Wald,2,4.517756899993401,None,,,,,,,,,,,0,6,6,1,,,,,74.84082169999601,,,,,,,,,,,,,,,,,,,clip_weißt_09_sub_1,clips/clip_weißt_09_sub_1.mp4,audios/silence.mp3,visual,sub,True,74.83375839999644,74.84082169999601,75.22395569999935,75.42499379999936,75.42499379999936,75.42411206665953,76.67570539997541,84.56047399999807,84.45631859998684,[6.173347300005844],84.55486389997532,89.08813829999417,2,2,84.56047399999807,84.56047399999807,84.56047399999807,4.517756899993401,None,,,,,,,,,,,,,,,,,,,,,,,,,,,,,,,,,,399,001,2026-03-30_13h59.33.957,exp_sofc,,2025.2.3,60.17111461228291,2026-03-30 13h59.34.470049 +0200,
,7,7,0,,,,clip_hund_26_sub_1,clips/clip_hund_26_sub_1.mp4,audios/silence.mp3,hund,sub,0,26,NA,NA,9333,Wie wirkt die Frau?,amüsiert,hasserfüllt,traurig,ängstlich,None,,,,,,,,,,,,,0,7,7,3,,,,,89.20856619998813,,,,,,,,,,,,,,,,,,,clip_weißt_18_nosub_1,clips/clip_weißt_18_nosub_1.mp4,audios/silence.mp3,visual,nosub,False,89.20001059997594,89.20856619998813,89.58798309997655,89.78816359999473,89.78816359999473,89.78852606664101,91.03987449998385,102.04390329998569,101.80726319999667,[],101.91938979999395,101.91942479999852,None,,,,,,,,,,,,,,,,,,,,,,,,,,,,,,,,,,,,,,,,399,001,2026-03-30_13h59.33.957,exp_sofc,,2025.2.3,60.17111461228291,2026-03-30 13h59.34.470049 +0200,
,8,8,0,,,,clip_hund_28_nosub_0,clips/clip_hund_28_nosub_0.mp4,audios/clip_hund_28_nosub_0.mp3,hund,nosub,0,28,NA,NA,9840,Was steht auf dem Tisch vor den Personen?,Weinflasche mit Gläsern,Wasser,Bier,Kaffee,None,,,,,,,,,,,,,0,8,8,4,,,,,102.04390329998569,,,,,,,,,,,,,,,,,,,clip_wurst_09_sub_1,clips/clip_wurst_09_sub_1.mp4,audios/clip_wurst_09_sub_1.mp3,audiovisual,sub,False,102.0378888999985,102.04390329998569,102.42811359997722,102.627968899993,102.627968899993,102.6275874666501,,114.15122349999729,113.91324959998019,[4.92530619999161],114.02408969998942,114.02412239997648,None,,,,,,,,,,,,,,,,,,,,,,,,,,,,,,,,,,,,,,,,399,001,2026-03-30_13h59.33.957,exp_sofc,,2025.2.3,60.17111461228291,2026-03-30 13h59.34.470049 +0200,
,9,9,0,,,,clip_hund_06_nosub_0,clips/clip_hund_06_nosub_0.mp4,audios/clip_hund_06_nosub_0.mp3,hund,nosub,0,6,NA,NA,10860,Wie sieht das Studio aus?,unaufgeräumt,sehr ordentlich,komplett leer,stark überfüllt,1,4.527949899988016,None,,,,,,,,,,,0,9,9,2,,,,,114.15122349999729,,,,,,,,,,,,,,,,,,,clip_hund_25_sub_1,clips/clip_hund_25_sub_1.mp4,audios/silence.mp3,visual,sub,True,114.14320029999362,114.15122349999729,114.53613829999813,114.73482679997687,114.73482679997687,114.73569886666179,115.98689879997983,123.18212399998447,123.0667663999775,[6.632832100003725],123.17660909998813,127.72269470000174,1,1,123.18212399998447,123.18212399998447,123.18212399998447,4.527949899988016,None,,,,,,,,,,,,,,,,,,,,,,,,,,,,,,,,,,399,001,2026-03-30_13h59.33.957,exp_sofc,,2025.2.3,60.17111461228291,2026-03-30 13h59.34.470049 +0200,
,10,10,0,,,,clip_weißt_10_nosub_1,clips/clip_weißt_10_nosub_1.mp4,audios/clip_weißt_10_nosub_1.mp3,weißt,nosub,1,10,4280.0,NA,11000,Was macht der Mann?,er greift an den Fernseher,er schaltet das Radio ein,er wirft eine Flasche,er öffnet das Fenster,4,2.1765313000069,None,,,,,,,,,,,0,10,10,6,,,,,127.86929859998054,,,,,,,,,,,,,,,,,,,clip_weißt_05_sub_0,clips/clip_weißt_05_sub_0.mp4,audios/clip_weißt_05_sub_0.mp3,audiovisual,sub,True,127.86267019997467,127.86929859998054,128.23260259997915,128.4322532999795,128.4322532999795,128.43319286665454,138.36444689999917,138.36444689999917,138.2399502999906,[],138.35748949999106,140.5516802999773,4,4,138.36444689999917,138.36444689999917,138.36444689999917,2.1765313000069,None,,,,,,,,,,,,,,,,,,,,,,,,,,,,,,,,,,399,001,2026-03-30_13h59.33.957,exp_sofc,,2025.2.3,60.17111461228291,2026-03-30 13h59.34.470049 +0200,
,11,11,0,,,,clip_hund_02_sub_1,clips/clip_hund_02_sub_1.mp4,audios/clip_hund_02_sub_1.mp3,hund,sub,1,2,8300.0,NA,9900,Welche Farbe hat der Pullover der Frau?,grün,schwarz,blau,rot,None,,,,,,,,,,,,,0,11,11,8,,,,,140.67531309998594,,,,,,,,,,,,,,,,,,,clip_weißt_21_nosub_0,clips/clip_weißt_21_nosub_0.mp4,audios/silence.mp3,visual,nosub,False,140.6677407999814,140.67531309998594,141.05163129998255,141.2532156999805,141.2532156999805,141.25192426666425,142.50385169999208,151.467914799985,151.3517218999914,[],151.46000929997535,151.46003950000159,None,,,,,,,,,,,,,,,,,,,,,,,,,,,,,,,,,,,,,,,,399,001,2026-03-30_13h59.33.957,exp_sofc,,2025.2.3,60.17111461228291,2026-03-30 13h59.34.470049 +0200,
,,,,,,,,,,,,,,,,,,,,,,,,,,,,,,,,,,,,,,,,,,,,,,,,,,,,,,,,,,,,,,,,,,,,,,,,,,,,,,,,,,,,,,,151.4601128999784,151.467914799985,156.57449589998578,156.4581059999764,,,,,,,,,,,,,,,,,,,,,,,,,,,,,,399,001,2026-03-30_13h59.33.957,exp_sofc,,2025.2.3,60.17111461228291,2026-03-30 13h59.34.470049 +0200,
,0,0,0,,,,,,,,,,,,,,,,,,,,,,None,None,,,,,,,,,,,,,0,0,0,0,156.57449589998578,,,,,,,,,,,,,,,,,,,,,,,,,,,,,,,,,,,,,,,,,,,,,,,,clips/clip_lied_19_nosub_1.mp4,audios/clip_lied_19_nosub_1.mp3,audiovisual,156.5689318999939,156.97387219997472,157.1749299999792,157.1749299999792,157.1741822666411,168.08363469998585,168.08363469998585,167.87978699998348,[4.9658879000053275],167.97540169997956,167.97544979999657,None,167.97548369999276,167.97550209998735,None,,,,,,,,,,,,399,001,2026-03-30_13h59.33.957,exp_sofc,,2025.2.3,60.17111461228291,2026-03-30 13h59.34.470049 +0200,
,1,0,1,,,,,,,,,,,,,,,,,,,,,,4,None,3.3495593999978155,None,,,,,,,,,,,1,0,1,0,168.08363469998585,,,,,,,,,,,,,,,,,,,,,,,,,,,,,,,,,,,,,,,,,,,,,,,,clips/clip_hund_08_nosub_1.mp4,audios/silence.mp3,visual,168.07750079999096,168.4845074999903,168.68476229999214,168.68476229999214,168.68468366665573,178.819583399978,169.93585799998255,178.71631579997484,[],178.81315659999382,182.18018440000014,4,182.18025249999482,182.18027979999897,None,4,178.819583399978,178.819583399978,178.819583399978,3.3495593999978155,None,,,,,,399,001,2026-03-30_13h59.33.957,exp_sofc,,2025.2.3,60.17111461228291,2026-03-30 13h59.34.470049 +0200,
,2,0,2,,,,,,,,,,,,,,,,,,,,,,3,None,2.5104303999978583,None,,,,,,,,,,,2,0,2,0,182.31236149999313,,,,,,,,,,,,,,,,,,,,,,,,,,,,,,,,,,,,,,,,,,,,,,,,clips/clip_claude_20_nosub_1.mp4,audios/silence.mp3,visual,182.30563119999715,182.6811606999836,182.8819674999977,182.8819674999977,182.88103666666237,195.0174505999894,184.13308609998785,194.90219949997845,[6.408821999997599],195.01051599998027,197.53698059997987,3,197.53703169999062,197.53704789999756,None,4,195.0174505999894,195.0174505999894,195.0174505999894,2.5104303999978583,None,,,,,,399,001,2026-03-30_13h59.33.957,exp_sofc,,2025.2.3,60.17111461228291,2026-03-30 13h59.34.470049 +0200,
,3,0,3,,,,,,,,,,,,,,,,,,,,,,None,None,,,,,,,,,,,,,3,0,3,0,197.64811889998964,,,,,,,,,,,,,,,,,,,,,,,,,,,,,,,,,,,,,,,,,,,,,,,,clips/clip_claude_06_sub_1.mp4,audios/silence.mp3,visual,197.64162819998455,198.04764089998207,198.24933449999662,198.24933449999662,198.24844316664192,211.03911039998638,199.50007799998275,210.80143639998278,[4.161146700003883],210.89850859998842,210.89853739997488,None,210.8985660999897,210.8985802999814,None,,,,,,,,,,,,399,001,2026-03-30_13h59.33.957,exp_sofc,,2025.2.3,60.17111461228291,2026-03-30 13h59.34.470049 +0200,
,4,0,4,,,,,,,,,,,,,,,,,,,,,,None,None,,,,,,,,,,,,,4,0,4,0,211.03911039998638,,,,,,,,,,,,,,,,,,,,,,,,,,,,,,,,,,,,,,,,,,,,,,,,clips/clip_claude_21_nosub_1.mp4,audios/clip_claude_21_nosub_1.mp3,audiovisual,211.03317149999202,211.40542659998755,211.6057985999796,211.6057985999796,211.60547126664122,224.0994421999785,223.87552849997883,223.8757254999946,[10.127000599983148],223.97902159998193,223.9791155999992,None,223.97917049998068,223.97919379998348,None,,,,,,,,,,,,399,001,2026-03-30_13h59.33.957,exp_sofc,,2025.2.3,60.17111461228291,2026-03-30 13h59.34.470049 +0200,
,5,0,5,,,,,,,,,,,,,,,,,,,,,,None,None,,,,,,,,,,,,,5,0,5,0,224.0994421999785,,,,,,,,,,,,,,,,,,,,,,,,,,,,,,,,,,,,,,,,,,,,,,,,clips/clip_lied_17_sub_2.mp4,audios/clip_lied_17_sub_2.mp3,audiovisual,224.09362369999872,224.49312040000223,224.6931502999796,224.6931502999796,224.6930535666509,234.9233103999868,234.72625779997907,234.72645029998966,"[2.8013148000172805, 7.843615799996769]",234.81267329998082,234.81270660000155,None,234.8127753000008,234.81280489999335,None,,,,,,,,,,,,399,001,2026-03-30_13h59.33.957,exp_sofc,,2025.2.3,60.17111461228291,2026-03-30 13h59.34.470049 +0200,
,6,0,6,,,,,,,,,,,,,,,,,,,,,,None,None,,,,,,,,,,,,,6,0,6,0,234.9233103999868,,,,,,,,,,,,,,,,,,,,,,,,,,,,,,,,,,,,,,,,,,,,,,,,clips/clip_wurst_20_sub_0.mp4,audios/silence.mp3,visual,234.9172577999998,235.31800739999744,235.5183502,235.5183502,235.51841706666553,245.73744799999986,236.7696522999904,245.55011549999472,[],245.63708759998553,245.63712719999603,None,245.63716899999417,245.63719339997624,None,,,,,,,,,,,,399,001,2026-03-30_13h59.33.957,exp_sofc,,2025.2.3,60.17111461228291,2026-03-30 13h59.34.470049 +0200,
,7,0,7,,,,,,,,,,,,,,,,,,,,,,None,None,,,,,,,,,,,,,7,0,7,0,245.73744799999986,,,,,,,,,,,,,,,,,,,,,,,,,,,,,,,,,,,,,,,,,,,,,,,,clips/clip_lied_22_nosub_1.mp4,audios/silence.mp3,visual,245.73146479998832,246.13716589999967,246.337799299974,246.337799299974,246.3371868666475,257.09583159998874,247.5895575999748,256.8707133999851,[6.070679900003597],256.96592019998934,256.96596209998825,None,256.9660418999847,256.96608089999063,None,,,,,,,,,,,,399,001,2026-03-30_13h59.33.957,exp_sofc,,2025.2.3,60.17111461228291,2026-03-30 13h59.34.470049 +0200,
,8,0,8,,,,,,,,,,,,,,,,,,,,,,None,None,,,,,,,,,,,,,8,0,8,0,257.09583159998874,,,,,,,,,,,,,,,,,,,,,,,,,,,,,,,,,,,,,,,,,,,,,,,,clips/clip_hund_09_nosub_2.mp4,audios/clip_hund_09_nosub_2.mp3,audiovisual,257.09010649999254,257.4721076999849,257.6722910999961,257.6722910999961,257.6719251666548,269.4551246999763,269.23974549997365,269.2399386999896,"[5.536832300014794, 10.526173699996434]",269.3412897999806,269.34132329997374,None,269.3413582999783,269.34137419998297,None,,,,,,,,,,,,399,001,2026-03-30_13h59.33.957,exp_sofc,,2025.2.3,60.17111461228291,2026-03-30 13h59.34.470049 +0200,
,9,0,9,,,,,,,,,,,,,,,,,,,,,,None,None,,,,,,,,,,,,,9,0,9,0,269.4551246999763,,,,,,,,,,,,,,,,,,,,,,,,,,,,,,,,,,,,,,,,,,,,,,,,clips/clip_lied_18_nosub_2.mp4,audios/silence.mp3,visual,269.4490194999962,269.8550136999984,270.05556549999164,270.05556549999164,270.05552296666815,281.0038417999749,271.3069508999761,280.7559213999775,"[5.413058299978729, 7.685540899983607]",280.8580530999752,280.8580852999876,None,280.8581214000005,280.8581485999748,None,,,,,,,,,,,,399,001,2026-03-30_13h59.33.957,exp_sofc,,2025.2.3,60.17111461228291,2026-03-30 13h59.34.470049 +0200,
,10,0,10,,,,,,,,,,,,,,,,,,,,,,2,None,1.9710533999896143,None,,,,,,,,,,,10,0,10,0,281.0038417999749,,,,,,,,,,,,,,,,,,,,,,,,,,,,,,,,,,,,,,,,,,,,,,,,clips/clip_holo_08_sub_2.mp4,audios/clip_holo_08_sub_2.mp3,audiovisual,280.9984018999967,281.36434030000237,281.56489049998345,281.56489049998345,281.5645373666523,292.4623682999809,,292.34894659998827,"[4.205402699997649, 9.313101499981713]",292.4555025000009,294.44800360000227,2,294.44805310000083,294.4480721,None,2,292.4623682999809,292.4623682999809,292.4623682999809,1.9710533999896143,None,,,,,,399,001,2026-03-30_13h59.33.957,exp_sofc,,2025.2.3,60.17111461228291,2026-03-30 13h59.34.470049 +0200,
,11,0,11,,,,,,,,,,,,,,,,,,,,,,None,None,,,,,,,,,,,,,11,0,11,0,294.5582431999792,,,,,,,,,,,,,,,,,,,,,,,,,,,,,,,,,,,,,,,,,,,,,,,,clips/clip_wurst_12_sub_0.mp4,audios/silence.mp3,visual,294.55167679997976,294.9580991999828,295.1580832999898,295.1580832999898,295.158103466649,303.9877342999971,296.4112144999963,303.7887920999783,[],303.87642389998655,303.87646010000026,None,303.8764940999972,303.8765132999979,None,,,,,,,,,,,,399,001,2026-03-30_13h59.33.957,exp_sofc,,2025.2.3,60.17111461228291,2026-03-30 13h59.34.470049 +0200,
,12,0,12,,,,,,,,,,,,,,,,,,,,,,None,None,,,,,,,,,,,,,12,0,12,0,303.9877342999971,,,,,,,,,,,,,,,,,,,,,,,,,,,,,,,,,,,,,,,,,,,,,,,,clips/clip_lied_11_sub_1.mp4,audios/silence.mp3,visual,303.98150169997825,304.3815082999936,304.5811923999863,304.5811923999863,304.5809005666563,315.8756557999877,305.8330308999866,315.6672497999971,[8.199492899992038],315.75830829999177,315.758340499975,None,315.7583981999778,315.758448699984,None,,,,,,,,,,,,399,001,2026-03-30_13h59.33.957,exp_sofc,,2025.2.3,60.17111461228291,2026-03-30 13h59.34.470049 +0200,
,13,0,13,,,,,,,,,,,,,,,,,,,,,,None,None,,,,,,,,,,,,,13,0,13,0,315.8756557999877,,,,,,,,,,,,,,,,,,,,,,,,,,,,,,,,,,,,,,,,,,,,,,,,clips/clip_wurst_03_sub_1.mp4,audios/silence.mp3,visual,315.86945479997667,316.25876089997473,316.4606538999942,316.4606538999942,316.4591487666514,328.60612659997423,317.7106908999849,328.37891339999624,[4.2343186000071],328.47887849999825,328.4789119999914,None,328.47894809997524,328.47896879998734,None,,,,,,,,,,,,399,001,2026-03-30_13h59.33.957,exp_sofc,,2025.2.3,60.17111461228291,2026-03-30 13h59.34.470049 +0200,
,14,0,14,,,,,,,,,,,,,,,,,,,,,,None,None,,,,,,,,,,,,,14,0,14,0,328.60612659997423,,,,,,,,,,,,,,,,,,,,,,,,,,,,,,,,,,,,,,,,,,,,,,,,clips/clip_lied_12_sub_0.mp4,audios/clip_lied_12_sub_0.mp3,audiovisual,328.600254399993,328.9791986999917,329.1790303000016,329.1790303000016,329.17848986664126,338.42811839998467,338.2100864999811,338.2102629999863,[],338.31836779997684,338.31840059999377,None,338.31843499999377,338.3184508999984,None,,,,,,,,,,,,399,001,2026-03-30_13h59.33.957,exp_sofc,,2025.2.3,60.17111461228291,2026-03-30 13h59.34.470049 +0200,
,15,0,15,,,,,,,,,,,,,,,,,,,,,,None,None,,,,,,,,,,,,,15,0,15,0,338.42811839998467,,,,,,,,,,,,,,,,,,,,,,,,,,,,,,,,,,,,,,,,,,,,,,,,clips/clip_holo_05_nosub_2.mp4,audios/silence.mp3,visual,338.4219385999895,338.8270374999847,339.0282596999896,339.0282596999896,339.0279720666624,348.39503899999545,340.2791444999748,348.1588424999791,[7.040545399999246],348.26688719997765,348.26696769997943,None,348.26701419998426,348.26703289998113,None,,,,,,,,,,,,399,001,2026-03-30_13h59.33.957,exp_sofc,,2025.2.3,60.17111461228291,2026-03-30 13h59.34.470049 +0200,
,16,0,16,,,,,,,,,,,,,,,,,,,,,,None,None,,,,,,,,,,,,,16,0,16,0,348.39503899999545,,,,,,,,,,,,,,,,,,,,,,,,,,,,,,,,,,,,,,,,,,,,,,,,clips/clip_weißt_03_sub_0.mp4,audios/clip_weißt_03_sub_0.mp3,audiovisual,348.38997059999383,348.7781806999992,348.9796741999744,348.9796741999744,348.9791097666641,361.21323329998995,360.99692359997425,360.9970926999813,[],361.08747189998394,361.0875516999804,None,361.08766559997457,361.08768219998456,None,,,,,,,,,,,,399,001,2026-03-30_13h59.33.957,exp_sofc,,2025.2.3,60.17111461228291,2026-03-30 13h59.34.470049 +0200,
,17,0,17,,,,,,,,,,,,,,,,,,,,,,None,None,,,,,,,,,,,,,17,0,17,0,361.21323329998995,,,,,,,,,,,,,,,,,,,,,,,,,,,,,,,,,,,,,,,,,,,,,,,,clips/clip_claude_27_sub_0.mp4,audios/clip_claude_27_sub_0.mp3,audiovisual,361.20750049999333,361.5963853999856,361.79737369998475,361.79737369998475,361.7971843666494,374.01217969998834,374.01217969998834,373.81545789999655,[],373.9045909999986,373.9046280999901,None,373.9046934999933,373.90472469999804,None,,,,,,,,,,,,399,001,2026-03-30_13h59.33.957,exp_sofc,,2025.2.3,60.17111461228291,2026-03-30 13h59.34.470049 +0200,
,18,0,18,,,,,,,,,,,,,,,,,,,,,,None,None,,,,,,,,,,,,,18,0,18,0,374.01217969998834,,,,,,,,,,,,,,,,,,,,,,,,,,,,,,,,,,,,,,,,,,,,,,,,clips/clip_wurst_14_nosub_1.mp4,audios/silence.mp3,visual,374.00609339997754,374.40863249998074,374.6095483999816,374.6095483999816,374.6092238666645,384.8606739999959,375.8600893999974,384.6416188000003,[8.20417230000021],384.74907279998297,384.7491148999834,None,384.74916159998975,384.7491865999764,None,,,,,,,,,,,,399,001,2026-03-30_13h59.33.957,exp_sofc,,2025.2.3,60.17111461228291,2026-03-30 13h59.34.470049 +0200,
,19,0,19,,,,,,,,,,,,,,,,,,,,,,None,None,,,,,,,,,,,,,19,0,19,0,384.8606739999959,,,,,,,,,,,,,,,,,,,,,,,,,,,,,,,,,,,,,,,,,,,,,,,,clips/clip_holo_19_sub_1.mp4,audios/silence.mp3,visual,384.85433799997554,385.2589065999782,385.45978989999276,385.45978989999276,385.4593006666439,395.6814548999828,386.71074199999566,395.4913197999995,[6.727966700011166],395.57737019998604,395.5774090999912,None,395.57745449998765,395.5774721999769,None,,,,,,,,,,,,399,001,2026-03-30_13h59.33.957,exp_sofc,,2025.2.3,60.17111461228291,2026-03-30 13h59.34.470049 +0200,
,20,0,20,,,,,,,,,,,,,,,,,,,,,,4,None,2.370951299992157,None,,,,,,,,,,,20,0,20,0,395.6814548999828,,,,,,,,,,,,,,,,,,,,,,,,,,,,,,,,,,,,,,,,,,,,,,,,clips/clip_claude_08_nosub_0.mp4,audios/silence.mp3,visual,395.67541319999145,396.08145669999067,396.28158959999564,396.28158959999564,396.28141876665563,406.02998179997667,397.53322809998645,405.9141514999792,[],406.0254529999802,408.41719269999885,4,408.4172602999897,408.4172892999777,None,4,406.02998179997667,406.02998179997667,406.02998179997667,2.370951299992157,None,,,,,,399,001,2026-03-30_13h59.33.957,exp_sofc,,2025.2.3,60.17111461228291,2026-03-30 13h59.34.470049 +0200,
,21,0,21,,,,,,,,,,,,,,,,,,,,,,None,None,,,,,,,,,,,,,21,0,21,0,408.54338180000195,,,,,,,,,,,,,,,,,,,,,,,,,,,,,,,,,,,,,,,,,,,,,,,,clips/clip_holo_18_nosub_0.mp4,audios/clip_holo_18_nosub_0.mp3,audiovisual,408.5369770999823,408.9181361999945,409.11901529997704,409.11901529997704,409.1184396666688,421.214564599999,420.98713629998383,420.98731679999037,"[6.496738799993182, 9.774372499989113]",421.090670399979,421.090706899995,None,421.0907352999784,421.09075039997697,None,,,,,,,,,,,,399,001,2026-03-30_13h59.33.957,exp_sofc,,2025.2.3,60.17111461228291,2026-03-30 13h59.34.470049 +0200,
,22,0,22,,,,,,,,,,,,,,,,,,,,,,4,None,3.7070386999985203,None,,,,,,,,,,,22,0,22,0,421.214564599999,,,,,,,,,,,,,,,,,,,,,,,,,,,,,,,,,,,,,,,,,,,,,,,,clips/clip_hund_21_nosub_1.mp4,audios/clip_hund_21_nosub_1.mp3,audiovisual,421.20900549998623,421.6045892999973,421.8067732999916,421.8067732999916,421.80477496664776,431.947683699982,431.8377951000002,431.83797669998603,[6.291862999991281],431.9428648999892,435.6560176999774,4,435.6560853999981,435.6561126000015,None,4,431.947683699982,431.947683699982,431.947683699982,3.7070386999985203,None,,,,,,399,001,2026-03-30_13h59.33.957,exp_sofc,,2025.2.3,60.17111461228291,2026-03-30 13h59.34.470049 +0200,
,23,0,23,,,,,,,,,,,,,,,,,,,,,,None,None,,,,,,,,,,,,,23,0,23,0,435.787863799982,,,,,,,,,,,,,,,,,,,,,,,,,,,,,,,,,,,,,,,,,,,,,,,,clips/clip_claude_13_nosub_0.mp4,audios/clip_claude_13_nosub_0.mp3,audiovisual,435.7821511999937,436.15552599998773,436.35717439997825,436.35717439997825,436.3559306666468,445.77676979999524,445.5873047999921,445.5874835999857,[],445.6821148999734,445.6821455999743,None,445.68217919999734,445.6821945999982,None,,,,,,,,,,,,399,001,2026-03-30_13h59.33.957,exp_sofc,,2025.2.3,60.17111461228291,2026-03-30 13h59.34.470049 +0200,
,24,0,24,,,,,,,,,,,,,,,,,,,,,,None,None,,,,,,,,,,,,,24,0,24,0,445.77676979999524,,,,,,,,,,,,,,,,,,,,,,,,,,,,,,,,,,,,,,,,,,,,,,,,clips/clip_weißt_13_sub_0.mp4,audios/silence.mp3,visual,445.77080849997583,446.19344899998396,446.3942641999747,446.3942641999747,446.39405416665636,457.42215579998447,447.64677629998187,457.22744129999774,[],457.31816179997986,457.3182459999807,None,457.31830309997895,457.3183192999859,None,,,,,,,,,,,,399,001,2026-03-30_13h59.33.957,exp_sofc,,2025.2.3,60.17111461228291,2026-03-30 13h59.34.470049 +0200,
,25,0,25,,,,,,,,,,,,,,,,,,,,,,None,None,,,,,,,,,,,,,25,0,25,0,457.42215579998447,,,,,,,,,,,,,,,,,,,,,,,,,,,,,,,,,,,,,,,,,,,,,,,,clips/clip_weißt_30_nosub_2.mp4,audios/silence.mp3,visual,457.4160078999994,457.81946379999863,458.02047940000193,458.02047940000193,458.0197298666501,470.2356597999751,459.2720002999995,470.0398627999821,"[0.14972720001242124, 11.866703800013056]",470.1262739999802,470.12631389999297,None,470.12635690000025,470.12637990000076,None,,,,,,,,,,,,399,001,2026-03-30_13h59.33.957,exp_sofc,,2025.2.3,60.17111461228291,2026-03-30 13h59.34.470049 +0200,
,26,0,26,,,,,,,,,,,,,,,,,,,,,,3,None,2.106778299988946,None,,,,,,,,,,,26,0,26,0,470.2356597999751,,,,,,,,,,,,,,,,,,,,,,,,,,,,,,,,,,,,,,,,,,,,,,,,clips/clip_claude_26_sub_0.mp4,audios/silence.mp3,visual,470.2293383999786,470.6317395999795,470.8318787999742,470.8318787999742,470.8316458666561,481.86464329998125,472.0845935999823,481.7484793999756,[5.124887799989665],481.8583402999793,483.9850461999886,3,483.9851133999764,483.985140499979,None,3,481.86464329998125,481.86464329998125,481.86464329998125,2.106778299988946,None,,,,,,399,001,2026-03-30_13h59.33.957,exp_sofc,,2025.2.3,60.17111461228291,2026-03-30 13h59.34.470049 +0200,
,27,0,27,,,,,,,,,,,,,,,,,,,,,,None,None,,,,,,,,,,,,,27,0,27,0,484.09986489999574,,,,,,,,,,,,,,,,,,,,,,,,,,,,,,,,,,,,,,,,,,,,,,,,clips/clip_claude_14_sub_0.mp4,audios/silence.mp3,visual,484.0933703999908,484.4995086999843,484.7006018999964,484.7006018999964,484.7002162666506,496.0090809999965,485.95194169998285,495.8017627999943,"[4.969360499992035, 9.517557700019097]",495.8907920999918,495.8908257999865,None,495.89087169998675,495.8908992999932,None,,,,,,,,,,,,399,001,2026-03-30_13h59.33.957,exp_sofc,,2025.2.3,60.17111461228291,2026-03-30 13h59.34.470049 +0200,
,28,0,28,,,,,,,,,,,,,,,,,,,,,,1,None,5.942124199995305,None,,,,,,,,,,,28,0,28,0,496.0090809999965,,,,,,,,,,,,,,,,,,,,,,,,,,,,,,,,,,,,,,,,,,,,,,,,clips/clip_dampf_05_nosub_2.mp4,audios/clip_dampf_05_nosub_2.mp3,audiovisual,496.00354729997343,496.3934261999966,496.5958785999974,496.5958785999974,496.5937791666404,505.4100159999798,,505.29644379997626,"[3.6322604999877512, 8.630836800002726]",505.40296559999115,511.36682799999835,1,511.3668953999877,511.366921799985,None,1,505.4100159999798,505.4100159999798,505.4100159999798,5.942124199995305,None,,,,,,399,001,2026-03-30_13h59.33.957,exp_sofc,,2025.2.3,60.17111461228291,2026-03-30 13h59.34.470049 +0200,
,29,0,29,,,,,,,,,,,,,,,,,,,,,,None,None,,,,,,,,,,,,,29,0,29,0,511.50761699999566,,,,,,,,,,,,,,,,,,,,,,,,,,,,,,,,,,,,,,,,,,,,,,,,clips/clip_hund_13_nosub_1.mp4,audios/clip_hund_13_nosub_1.mp3,audiovisual,511.502164799982,511.87495719999424,512.0757312999922,512.0757312999922,512.0756983666545,524.0634918999858,523.8439127999882,523.8441012999974,[5.935151800018502],523.927417400002,523.9274509999959,None,523.9274777999963,523.9274925999925,None,,,,,,,,,,,,399,001,2026-03-30_13h59.33.957,exp_sofc,,2025.2.3,60.17111461228291,2026-03-30 13h59.34.470049 +0200,
,30,0,30,,,,,,,,,,,,,,,,,,,,,,4,None,2.9555369000008795,None,,,,,,,,,,,30,0,30,0,524.0634918999858,,,,,,,,,,,,,,,,,,,,,,,,,,,,,,,,,,,,,,,,,,,,,,,,clips/clip_wurst_15_nosub_2.mp4,audios/clip_wurst_15_nosub_2.mp3,audiovisual,524.0579851999937,524.4280135000008,524.6287406999909,524.6287406999909,524.6281726666532,534.1508010999823,534.0425672999991,534.0427265999897,[5.443100400007097],534.1453359999869,537.1236959999951,4,537.1237596999854,537.1237848000019,None,4,534.1508010999823,534.1508010999823,534.1508010999823,2.9555369000008795,None,,,,,,399,001,2026-03-30_13h59.33.957,exp_sofc,,2025.2.3,60.17111461228291,2026-03-30 13h59.34.470049 +0200,
,31,0,31,,,,,,,,,,,,,,,,,,,,,,None,None,,,,,,,,,,,,,31,0,31,0,537.250825999974,,,,,,,,,,,,,,,,,,,,,,,,,,,,,,,,,,,,,,,,,,,,,,,,clips/clip_holo_21_nosub_1.mp4,audios/silence.mp3,visual,537.2441791999736,537.6235827999772,537.8249320999894,537.8249320999894,537.824565766645,548.2221864999738,539.0767427999817,548.0238935999805,[4.31421730000875],548.1212317999743,548.1212665999774,None,548.1212992999936,548.1213173999859,None,,,,,,,,,,,,399,001,2026-03-30_13h59.33.957,exp_sofc,,2025.2.3,60.17111461228291,2026-03-30 13h59.34.470049 +0200,
,32,0,32,,,,,,,,,,,,,,,,,,,,,,None,None,,,,,,,,,,,,,32,0,32,0,548.2221864999738,,,,,,,,,,,,,,,,,,,,,,,,,,,,,,,,,,,,,,,,,,,,,,,,clips/clip_dampf_06_sub_2.mp4,audios/silence.mp3,visual,548.2161845999944,548.632231800002,548.8336485999753,548.8336485999753,548.8331575666418,558.075088099984,550.0845660999767,557.8650716999837,[3.8781189000001177],557.9641207999957,557.964175799978,None,557.9642298999825,557.9642485999793,None,,,,,,,,,,,,399,001,2026-03-30_13h59.33.957,exp_sofc,,2025.2.3,60.17111461228291,2026-03-30 13h59.34.470049 +0200,
,33,0,33,,,,,,,,,,,,,,,,,,,,,,None,None,,,,,,,,,,,,,33,0,33,0,558.075088099984,,,,,,,,,,,,,,,,,,,,,,,,,,,,,,,,,,,,,,,,,,,,,,,,clips/clip_holo_28_sub_0.mp4,audios/silence.mp3,visual,558.0688718999736,558.4750742999895,558.6758026999887,558.6758026999887,558.6753433666638,567.4402589999954,559.9266860999924,567.2055025000009,[],567.3115094999957,567.3115457999811,None,567.3115839999809,567.3116023999755,None,,,,,,,,,,,,399,001,2026-03-30_13h59.33.957,exp_sofc,,2025.2.3,60.17111461228291,2026-03-30 13h59.34.470049 +0200,
,34,0,34,,,,,,,,,,,,,,,,,,,,,,None,None,,,,,,,,,,,,,34,0,34,0,567.4402589999954,,,,,,,,,,,,,,,,,,,,,,,,,,,,,,,,,,,,,,,,,,,,,,,,clips/clip_holo_24_sub_2.mp4,audios/clip_holo_24_sub_2.mp3,audiovisual,567.4360288999742,567.8250316999911,568.0251839999983,568.0251839999983,568.0245331666413,578.0582193000009,577.8569854999951,577.857228399982,[7.2770694000064395],577.9576631999807,577.957699999999,None,577.9577501999738,577.9578005999792,None,,,,,,,,,,,,399,001,2026-03-30_13h59.33.957,exp_sofc,,2025.2.3,60.17111461228291,2026-03-30 13h59.34.470049 +0200,
,35,0,35,,,,,,,,,,,,,,,,,,,,,,None,None,,,,,,,,,,,,,35,0,35,0,578.0582193000009,,,,,,,,,,,,,,,,,,,,,,,,,,,,,,,,,,,,,,,,,,,,,,,,clips/clip_holo_01_nosub_1.mp4,audios/silence.mp3,visual,578.0522255999967,578.4657958999742,578.6664810999937,578.6664810999937,578.666089666662,588.0600893999799,579.9179393999802,587.8639027999889,"[0.9216963999788277, 4.34302829997614]",587.9602735999797,587.9603262999735,None,587.960371299996,587.9603888999845,None,,,,,,,,,,,,399,001,2026-03-30_13h59.33.957,exp_sofc,,2025.2.3,60.17111461228291,2026-03-30 13h59.34.470049 +0200,
,36,0,36,,,,,,,,,,,,,,,,,,,,,,None,None,,,,,,,,,,,,,36,0,36,0,588.0600893999799,,,,,,,,,,,,,,,,,,,,,,,,,,,,,,,,,,,,,,,,,,,,,,,,clips/clip_wurst_18_nosub_0.mp4,audios/silence.mp3,visual,588.0539484999899,588.4728448999813,588.6732943999814,588.6732943999814,588.6730805666632,598.9081129999831,589.92529069999,598.7058843999985,[],598.7906075999781,598.7906400999927,None,598.7906872000021,598.7907295999757,None,,,,,,,,,,,,399,001,2026-03-30_13h59.33.957,exp_sofc,,2025.2.3,60.17111461228291,2026-03-30 13h59.34.470049 +0200,
,37,0,37,,,,,,,,,,,,,,,,,,,,,,None,None,,,,,,,,,,,,,37,0,37,0,598.9081129999831,,,,,,,,,,,,,,,,,,,,,,,,,,,,,,,,,,,,,,,,,,,,,,,,clips/clip_hund_24_nosub_1.mp4,audios/silence.mp3,visual,598.9005166999996,599.2980920999835,599.4985145999817,599.4985145999817,599.4982952666508,611.7519284999871,600.7506697999779,611.5193943999766,[8.031230200023856],611.636271299998,611.6363178999745,None,611.636355900002,611.6363728999859,None,,,,,,,,,,,,399,001,2026-03-30_13h59.33.957,exp_sofc,,2025.2.3,60.17111461228291,2026-03-30 13h59.34.470049 +0200,
,38,0,38,,,,,,,,,,,,,,,,,,,,,,None,None,,,,,,,,,,,,,38,0,38,0,611.7519284999871,,,,,,,,,,,,,,,,,,,,,,,,,,,,,,,,,,,,,,,,,,,,,,,,clips/clip_wurst_22_nosub_0.mp4,audios/silence.mp3,visual,611.7457057999854,612.1368077999796,612.337286199996,612.337286199996,612.3371591666403,624.2380694999883,613.5906592999818,624.0368904999923,[],624.117797999992,624.1178405999963,None,624.1178900999948,624.117915699986,None,,,,,,,,,,,,399,001,2026-03-30_13h59.33.957,exp_sofc,,2025.2.3,60.17111461228291,2026-03-30 13h59.34.470049 +0200,
,39,0,39,,,,,,,,,,,,,,,,,,,,,,None,None,,,,,,,,,,,,,39,0,39,0,624.2380694999883,,,,,,,,,,,,,,,,,,,,,,,,,,,,,,,,,,,,,,,,,,,,,,,,clips/clip_claude_23_sub_0.mp4,audios/clip_claude_23_sub_0.mp3,audiovisual,624.2325244999956,624.6298369999859,624.8296949999931,624.8296949999931,624.8295151666428,637.1806825999811,637.1806825999811,636.981104299979,[],637.0770364999771,637.0770768999937,None,637.0771117999975,637.0771373999887,None,,,,,,,,,,,,399,001,2026-03-30_13h59.33.957,exp_sofc,,2025.2.3,60.17111461228291,2026-03-30 13h59.34.470049 +0200,
,40,0,40,,,,,,,,,,,,,,,,,,,,,,None,None,,,,,,,,,,,,,40,0,40,0,637.1806825999811,,,,,,,,,,,,,,,,,,,,,,,,,,,,,,,,,,,,,,,,,,,,,,,,clips/clip_holo_09_nosub_2.mp4,audios/silence.mp3,visual,637.1745731999981,637.5914272999798,637.7933212999778,637.7933212999778,637.7921862666592,649.4550310999912,639.0435287999862,649.2430496999878,[],649.3504801999952,649.3505439999863,None,649.350732299994,649.3507856999931,None,,,,,,,,,,,,399,001,2026-03-30_13h59.33.957,exp_sofc,,2025.2.3,60.17111461228291,2026-03-30 13h59.34.470049 +0200,
,41,0,41,,,,,,,,,,,,,,,,,,,,,,None,None,,,,,,,,,,,,,41,0,41,0,649.4550310999912,,,,,,,,,,,,,,,,,,,,,,,,,,,,,,,,,,,,,,,,,,,,,,,,clips/clip_wurst_34_nosub_2.mp4,audios/silence.mp3,visual,649.4492351999797,649.8556472999917,650.0557241999777,650.0557241999777,650.0553523666497,658.8071399999899,651.3072354999895,658.5852309999755,"[4.140777399996296, 6.29028039998957]",658.6829673999746,658.6830011999991,None,658.6830385999929,658.6830549000006,None,,,,,,,,,,,,399,001,2026-03-30_13h59.33.957,exp_sofc,,2025.2.3,60.17111461228291,2026-03-30 13h59.34.470049 +0200,
,42,0,42,,,,,,,,,,,,,,,,,,,,,,None,None,,,,,,,,,,,,,42,0,42,0,658.8071399999899,,,,,,,,,,,,,,,,,,,,,,,,,,,,,,,,,,,,,,,,,,,,,,,,clips/clip_wurst_01_nosub_0.mp4,audios/clip_wurst_01_nosub_0.mp3,audiovisual,658.8015825999901,659.1858817999891,659.3865387999977,659.3865387999977,659.3871480666605,669.5227863999899,669.3359131999896,669.3361745000002,[],669.4219851999951,669.422056099982,None,669.4221026999876,669.4221228999959,None,,,,,,,,,,,,399,001,2026-03-30_13h59.33.957,exp_sofc,,2025.2.3,60.17111461228291,2026-03-30 13h59.34.470049 +0200,
,43,0,43,,,,,,,,,,,,,,,,,,,,,,None,None,,,,,,,,,,,,,43,0,43,0,669.5227863999899,,,,,,,,,,,,,,,,,,,,,,,,,,,,,,,,,,,,,,,,,,,,,,,,clips/clip_weißt_23_sub_1.mp4,audios/silence.mp3,visual,669.5168589999957,669.9231251000019,670.1239745999919,670.1239745999919,670.1236543666494,681.7612751999986,671.3746703999932,681.5407673000009,"[0.3016051000158768, 8.73353299999144]",681.6311086999776,681.6311455999967,None,681.6311795999936,681.6312016999873,None,,,,,,,,,,,,399,001,2026-03-30_13h59.33.957,exp_sofc,,2025.2.3,60.17111461228291,2026-03-30 13h59.34.470049 +0200,
,44,0,44,,,,,,,,,,,,,,,,,,,,,,None,None,,,,,,,,,,,,,44,0,44,0,681.7612751999986,,,,,,,,,,,,,,,,,,,,,,,,,,,,,,,,,,,,,,,,,,,,,,,,clips/clip_hund_19_sub_0.mp4,audios/clip_hund_19_sub_0.mp3,audiovisual,681.7556325999903,682.1412766999856,682.3420331999951,682.3420331999951,682.3417678666631,693.8943988999818,693.8943988999818,693.6979247999843,[],693.7920879999874,693.7921778000018,None,693.7922487999895,693.7922761999944,None,,,,,,,,,,,,399,001,2026-03-30_13h59.33.957,exp_sofc,,2025.2.3,60.17111461228291,2026-03-30 13h59.34.470049 +0200,
,45,0,45,,,,,,,,,,,,,,,,,,,,,,None,None,,,,,,,,,,,,,45,0,45,0,693.8943988999818,,,,,,,,,,,,,,,,,,,,,,,,,,,,,,,,,,,,,,,,,,,,,,,,clips/clip_herz_06_nosub_2.mp4,audios/silence.mp3,visual,693.8886315999844,694.3022361999901,694.505032599991,694.505032599991,694.5025971666657,705.3062956999929,695.7542286999815,705.0865394999855,"[4.8713916999986395, 8.474324100010563]",705.181422499998,705.1814719999966,None,705.1815139999962,705.1815330999962,None,,,,,,,,,,,,399,001,2026-03-30_13h59.33.957,exp_sofc,,2025.2.3,60.17111461228291,2026-03-30 13h59.34.470049 +0200,
,46,0,46,,,,,,,,,,,,,,,,,,,,,,None,None,,,,,,,,,,,,,46,0,46,0,705.3062956999929,,,,,,,,,,,,,,,,,,,,,,,,,,,,,,,,,,,,,,,,,,,,,,,,clips/clip_hund_30_sub_0.mp4,audios/clip_hund_30_sub_0.mp3,audiovisual,705.3012527999817,705.6865152999817,705.8868741999904,705.8868741999904,705.8881742666456,718.1291918999923,718.1291918999923,717.9056745999842,[],718.0096032999863,718.0096735999978,None,718.0097353999736,718.0097680999897,None,,,,,,,,,,,,399,001,2026-03-30_13h59.33.957,exp_sofc,,2025.2.3,60.17111461228291,2026-03-30 13h59.34.470049 +0200,
,47,0,47,,,,,,,,,,,,,,,,,,,,,,None,None,,,,,,,,,,,,,47,0,47,0,718.1291918999923,,,,,,,,,,,,,,,,,,,,,,,,,,,,,,,,,,,,,,,,,,,,,,,,clips/clip_hund_20_nosub_0.mp4,audios/silence.mp3,visual,718.1232014999841,718.5230061999755,718.7235937999794,718.7235937999794,718.7232676666501,730.4445192999847,719.9755563999934,730.2416493999772,[],730.3405416999885,730.3405836999882,None,730.3406605999917,730.3406941999856,None,,,,,,,,,,,,399,001,2026-03-30_13h59.33.957,exp_sofc,,2025.2.3,60.17111461228291,2026-03-30 13h59.34.470049 +0200,
,48,0,48,,,,,,,,,,,,,,,,,,,,,,None,None,,,,,,,,,,,,,48,0,48,0,730.4445192999847,,,,,,,,,,,,,,,,,,,,,,,,,,,,,,,,,,,,,,,,,,,,,,,,clips/clip_herz_02_nosub_0.mp4,audios/silence.mp3,visual,730.4395095999935,730.850629099994,731.0518412999809,731.0518412999809,731.0511283666458,743.6645396999957,732.3030185999814,743.4546536999987,"[0.31782850000308827, 9.240913300018292]",743.5638555999903,743.563889299985,None,743.5639633999963,743.5639889999875,None,,,,,,,,,,,,399,001,2026-03-30_13h59.33.957,exp_sofc,,2025.2.3,60.17111461228291,2026-03-30 13h59.34.470049 +0200,
,49,0,49,,,,,,,,,,,,,,,,,,,,,,None,None,,,,,,,,,,,,,49,0,49,0,743.6645396999957,,,,,,,,,,,,,,,,,,,,,,,,,,,,,,,,,,,,,,,,,,,,,,,,clips/clip_herz_16_sub_0.mp4,audios/silence.mp3,visual,743.6583176999993,744.0644358999853,744.2644257999782,744.2644257999782,744.2642186666528,753.5141922999755,745.5175241999968,753.2956720999791,[],753.3864107999834,753.3864434999996,None,753.3864820000017,753.3865040999954,None,,,,,,,,,,,,399,001,2026-03-30_13h59.33.957,exp_sofc,,2025.2.3,60.17111461228291,2026-03-30 13h59.34.470049 +0200,
,50,0,50,,,,,,,,,,,,,,,,,,,,,,None,None,,,,,,,,,,,,,50,0,50,0,753.5141922999755,,,,,,,,,,,,,,,,,,,,,,,,,,,,,,,,,,,,,,,,,,,,,,,,clips/clip_hund_04_nosub_0.mp4,audios/clip_hund_04_nosub_0.mp3,audiovisual,753.5085850999749,753.8959827999934,754.097031799989,754.097031799989,754.096347466668,763.8574399999925,763.628307099978,763.6284768999903,[],763.7302108999866,763.7302423999936,None,763.7302780999744,763.7302971999743,None,,,,,,,,,,,,399,001,2026-03-30_13h59.33.957,exp_sofc,,2025.2.3,60.17111461228291,2026-03-30 13h59.34.470049 +0200,
,51,0,51,,,,,,,,,,,,,,,,,,,,,,4,None,1.6500613999960478,None,,,,,,,,,,,51,0,51,0,763.8574399999925,,,,,,,,,,,,,,,,,,,,,,,,,,,,,,,,,,,,,,,,,,,,,,,,clips/clip_hund_36_sub_2.mp4,audios/clip_hund_36_sub_2.mp3,audiovisual,763.8518792999967,764.2289898999734,764.4292927999923,764.4292927999923,764.4300841666447,773.6969851999893,773.6969851999893,773.5947766999889,"[3.5288696000061464, 6.2070674000133295]",773.693086299987,775.3547161999741,4,775.3547710999846,775.3547875999939,None,4,773.6969851999893,773.6969851999893,773.6969851999893,1.6500613999960478,None,,,,,,399,001,2026-03-30_13h59.33.957,exp_sofc,,2025.2.3,60.17111461228291,2026-03-30 13h59.34.470049 +0200,
,52,0,52,,,,,,,,,,,,,,,,,,,,,,None,None,,,,,,,,,,,,,52,0,52,0,775.4831205999944,,,,,,,,,,,,,,,,,,,,,,,,,,,,,,,,,,,,,,,,,,,,,,,,clips/clip_holo_20_sub_1.mp4,audios/clip_holo_20_sub_1.mp3,audiovisual,775.4769130999921,775.85499599998,776.0566663999925,776.0566663999925,776.055418966662,785.684833199979,785.4700129999837,785.4701839999761,[],785.5578691999835,785.5579020000005,None,785.5579314999923,785.5579483999754,None,,,,,,,,,,,,399,001,2026-03-30_13h59.33.957,exp_sofc,,2025.2.3,60.17111461228291,2026-03-30 13h59.34.470049 +0200,
,53,0,53,,,,,,,,,,,,,,,,,,,,,,None,None,,,,,,,,,,,,,53,0,53,0,785.684833199979,,,,,,,,,,,,,,,,,,,,,,,,,,,,,,,,,,,,,,,,,,,,,,,,clips/clip_wurst_25_sub_1.mp4,audios/clip_wurst_25_sub_1.mp3,audiovisual,785.6806656999979,786.0707568999787,786.2863175999955,786.2700995999912,786.2695820666597,797.6979906999914,797.6979906999914,797.4872291999927,[],797.5851454999938,797.5851801999961,None,797.585236999992,797.5852816999832,None,,,,,,,,,,,,399,001,2026-03-30_13h59.33.957,exp_sofc,,2025.2.3,60.17111461228291,2026-03-30 13h59.34.470049 +0200,
,54,0,54,,,,,,,,,,,,,,,,,,,,,,3,None,3.381824799987953,None,,,,,,,,,,,54,0,54,0,797.6979906999914,,,,,,,,,,,,,,,,,,,,,,,,,,,,,,,,,,,,,,,,,,,,,,,,clips/clip_weißt_04_nosub_0.mp4,audios/silence.mp3,visual,797.6918773999787,798.0976914999774,798.2986139999994,798.2986139999994,798.298089766646,808.5094578999851,799.5499175000004,808.3978816999879,[],808.5053524999821,811.8988144999894,3,811.8988750999852,811.8989006999764,None,3,808.5094578999851,808.5094578999851,808.5094578999851,3.381824799987953,None,,,,,,399,001,2026-03-30_13h59.33.957,exp_sofc,,2025.2.3,60.17111461228291,2026-03-30 13h59.34.470049 +0200,
,55,0,55,,,,,,,,,,,,,,,,,,,,,,None,None,,,,,,,,,,,,,55,0,55,0,812.0237866999814,,,,,,,,,,,,,,,,,,,,,,,,,,,,,,,,,,,,,,,,,,,,,,,,clips/clip_herz_05_sub_0.mp4,audios/clip_herz_05_sub_0.mp3,audiovisual,812.0179043999815,812.3999066999822,812.6002474999987,812.6002474999987,812.6017214666683,823.1659945999854,,822.900338699983,"[6.095812000014121, 7.5110301000240725]",823.0206880999904,823.0207159999991,None,823.0207415999903,823.0207571999927,None,,,,,,,,,,,,399,001,2026-03-30_13h59.33.957,exp_sofc,,2025.2.3,60.17111461228291,2026-03-30 13h59.34.470049 +0200,
,56,0,56,,,,,,,,,,,,,,,,,,,,,,None,None,,,,,,,,,,,,,56,0,56,0,823.1659945999854,,,,,,,,,,,,,,,,,,,,,,,,,,,,,,,,,,,,,,,,,,,,,,,,clips/clip_claude_25_nosub_0.mp4,audios/clip_claude_25_nosub_0.mp3,audiovisual,823.1620242999925,823.5340419999848,823.7343755999755,823.7343755999755,823.7342920666599,834.1459591999883,,833.9341086999921,[],834.0346129999962,834.0346611999848,None,834.0347242999997,834.034763099975,None,,,,,,,,,,,,399,001,2026-03-30_13h59.33.957,exp_sofc,,2025.2.3,60.17111461228291,2026-03-30 13h59.34.470049 +0200,
,57,0,57,,,,,,,,,,,,,,,,,,,,,,None,None,,,,,,,,,,,,,57,0,57,0,834.1459591999883,,,,,,,,,,,,,,,,,,,,,,,,,,,,,,,,,,,,,,,,,,,,,,,,clips/clip_holo_13_nosub_1.mp4,audios/silence.mp3,visual,834.1398236999812,834.5458828999836,834.7462676999858,834.7462676999858,834.7460835666609,846.7949369999988,835.998161800002,846.5646776999929,[4.222334699996281],846.6614621999906,846.6614974999975,None,846.6615324000013,846.6615488999814,None,,,,,,,,,,,,399,001,2026-03-30_13h59.33.957,exp_sofc,,2025.2.3,60.17111461228291,2026-03-30 13h59.34.470049 +0200,
,58,0,58,,,,,,,,,,,,,,,,,,,,,,None,None,,,,,,,,,,,,,58,0,58,0,846.7949369999988,,,,,,,,,,,,,,,,,,,,,,,,,,,,,,,,,,,,,,,,,,,,,,,,clips/clip_holo_02_nosub_2.mp4,audios/clip_holo_02_nosub_2.mp3,audiovisual,846.7889729999879,847.1652285999735,847.3665618999803,847.3665618999803,847.3660358666423,858.7908138999774,,858.5675164999848,[8.015148399979807],858.6684258999885,858.6684593999817,None,858.6684950999916,858.6685156999738,None,,,,,,,,,,,,399,001,2026-03-30_13h59.33.957,exp_sofc,,2025.2.3,60.17111461228291,2026-03-30 13h59.34.470049 +0200,
,59,0,59,,,,,,,,,,,,,,,,,,,,,,None,space,,,9.033083000016632,None,,,,,,,,,59,0,59,0,858.7908138999774,,,,,,,,,,,,,,,,,,,,,,,,,,,,,,,,,,,,,,,,,,,,,,,,clips/clip_weißt_12_nosub_1.mp4,audios/clip_weißt_12_nosub_1.mp3,audiovisual,858.7853461999912,859.1679463999753,859.3679373999767,859.3679373999767,859.3675400666582,871.3890888000024,871.2861454999947,871.286374999996,[9.066414200002328],871.3784861000022,871.3785196999961,None,871.3785548000014,880.425485499989,space,,,,,,,871.3890888000024,871.3890888000024,871.3890888000024,9.033083000016632,None,399,001,2026-03-30_13h59.33.957,exp_sofc,,2025.2.3,60.17111461228291,2026-03-30 13h59.34.470049 +0200,
,60,0,60,,,,,,,,,,,,,,,,,,,,,,1,None,3.1216838999825995,None,,,,,,,,,,,60,0,60,0,880.5568959999946,,,,,,,,,,,,,,,,,,,,,,,,,,,,,,,,,,,,,,,,,,,,,,,,clips/clip_hund_15_sub_1.mp4,audios/clip_hund_15_sub_1.mp3,audiovisual,880.5503495000012,880.9260896999913,881.1271961999882,881.1271961999882,881.1266887666463,891.7105416999839,891.5934156999865,891.593656299985,[4.795684099983191],891.7032781000016,894.8481293999939,1,894.8481928999827,894.8482187999762,None,1,891.7105416999839,891.7105416999839,891.7105416999839,3.1216838999825995,None,,,,,,399,001,2026-03-30_13h59.33.957,exp_sofc,,2025.2.3,60.17111461228291,2026-03-30 13h59.34.470049 +0200,
,61,0,61,,,,,,,,,,,,,,,,,,,,,,None,None,,,,,,,,,,,,,61,0,61,0,894.9583142999909,,,,,,,,,,,,,,,,,,,,,,,,,,,,,,,,,,,,,,,,,,,,,,,,clips/clip_claude_12_nosub_0.mp4,audios/silence.mp3,visual,894.9518112999795,895.3583723999909,895.5588827999891,895.5588827999891,895.5585049666445,904.9942059999739,896.810262199986,904.7893286999897,[],904.8755288999819,904.8755601999874,None,904.8755875999923,904.8756022999878,None,,,,,,,,,,,,399,001,2026-03-30_13h59.33.957,exp_sofc,,2025.2.3,60.17111461228291,2026-03-30 13h59.34.470049 +0200,
,62,0,62,,,,,,,,,,,,,,,,,,,,,,None,None,,,,,,,,,,,,,62,0,62,0,904.9942059999739,,,,,,,,,,,,,,,,,,,,,,,,,,,,,,,,,,,,,,,,,,,,,,,,clips/clip_wurst_23_nosub_2.mp4,audios/clip_wurst_23_nosub_2.mp3,audiovisual,904.9883324999828,905.3824510999839,905.5823655999848,905.5823655999848,905.5820327666627,916.3092582999961,916.0982962999842,916.098519799998,[7.716771399980644],916.1897109999845,916.1897608999861,None,916.1898008999997,916.1898208999773,None,,,,,,,,,,,,399,001,2026-03-30_13h59.33.957,exp_sofc,,2025.2.3,60.17111461228291,2026-03-30 13h59.34.470049 +0200,
,63,0,63,,,,,,,,,,,,,,,,,,,,,,1,None,2.0532839999941643,None,,,,,,,,,,,63,0,63,0,916.3092582999961,,,,,,,,,,,,,,,,,,,,,,,,,,,,,,,,,,,,,,,,,,,,,,,,clips/clip_wurst_32_sub_1.mp4,audios/silence.mp3,visual,916.3029251999978,916.6922571999894,916.8943347999884,916.8943347999884,916.8923879666584,927.6220408999943,918.1442180000013,927.5094893999922,[7.331031400011852],927.6169144999876,929.6762211000023,1,929.6762676999788,929.6762844999903,None,1,927.6220408999943,927.6220408999943,927.6220408999943,2.0532839999941643,None,,,,,,399,001,2026-03-30_13h59.33.957,exp_sofc,,2025.2.3,60.17111461228291,2026-03-30 13h59.34.470049 +0200,
,64,0,64,,,,,,,,,,,,,,,,,,,,,,None,None,,,,,,,,,,,,,64,0,64,0,929.7983861999819,,,,,,,,,,,,,,,,,,,,,,,,,,,,,,,,,,,,,,,,,,,,,,,,clips/clip_wurst_35_nosub_0.mp4,audios/clip_wurst_35_nosub_0.mp3,audiovisual,929.792435099982,930.1773369000002,930.3771548999939,930.3771548999939,930.3769101666442,939.879182899982,939.879182899982,939.6823242999963,[],939.7840560999757,939.7840872999805,None,939.7841167000006,939.7841328999784,None,,,,,,,,,,,,399,001,2026-03-30_13h59.33.957,exp_sofc,,2025.2.3,60.17111461228291,2026-03-30 13h59.34.470049 +0200,
,65,0,65,,,,,,,,,,,,,,,,,,,,,,None,None,,,,,,,,,,,,,65,0,65,0,939.879182899982,,,,,,,,,,,,,,,,,,,,,,,,,,,,,,,,,,,,,,,,,,,,,,,,clips/clip_lied_07_sub_1.mp4,audios/silence.mp3,visual,939.8728575999849,940.284629599977,940.4846366999845,940.4846366999845,940.4844293666577,949.7192013999738,941.7362415999814,949.5153533999983,[4.669587500015041],949.614061100001,949.6140961999772,None,949.614132799994,949.6141550999891,None,,,,,,,,,,,,399,001,2026-03-30_13h59.33.957,exp_sofc,,2025.2.3,60.17111461228291,2026-03-30 13h59.34.470049 +0200,
,66,0,66,,,,,,,,,,,,,,,,,,,,,,None,None,,,,,,,,,,,,,66,0,66,0,949.7192013999738,,,,,,,,,,,,,,,,,,,,,,,,,,,,,,,,,,,,,,,,,,,,,,,,clips/clip_dampf_02_sub_1.mp4,audios/silence.mp3,visual,949.7128857999924,950.1252968999906,950.325388199999,950.325388199999,950.3247109666447,959.8630462999863,951.5766958999739,959.6560268999892,[5.079345600010129],959.7485526999808,959.7485861999739,None,959.7486242000014,959.7486571999907,None,,,,,,,,,,,,399,001,2026-03-30_13h59.33.957,exp_sofc,,2025.2.3,60.17111461228291,2026-03-30 13h59.34.470049 +0200,
,67,0,67,,,,,,,,,,,,,,,,,,,,,,None,None,,,,,,,,,,,,,67,0,67,0,959.8630462999863,,,,,,,,,,,,,,,,,,,,,,,,,,,,,,,,,,,,,,,,,,,,,,,,clips/clip_lied_02_nosub_2.mp4,audios/clip_lied_02_nosub_2.mp3,audiovisual,959.8576301999856,960.2484635000001,960.449409199995,960.449409199995,960.4490112666429,971.684708899993,971.684708899993,971.4665033999772,"[4.26328499999363, 9.652845000004163]",971.5542179999757,971.5542527999787,None,971.5542867999757,971.5543153999897,None,,,,,,,,,,,,399,001,2026-03-30_13h59.33.957,exp_sofc,,2025.2.3,60.17111461228291,2026-03-30 13h59.34.470049 +0200,
,68,0,68,,,,,,,,,,,,,,,,,,,,,,None,None,,,,,,,,,,,,,68,0,68,0,971.684708899993,,,,,,,,,,,,,,,,,,,,,,,,,,,,,,,,,,,,,,,,,,,,,,,,clips/clip_holo_22_nosub_1.mp4,audios/clip_holo_22_nosub_1.mp3,audiovisual,971.6788653999974,972.0684907999821,972.2843778999813,972.2676024999819,972.2673157666616,981.6742077999806,,981.4653898999968,[9.290438700001687],981.5548313999898,981.5548954999831,None,981.555094499985,981.555128899985,None,,,,,,,,,,,,399,001,2026-03-30_13h59.33.957,exp_sofc,,2025.2.3,60.17111461228291,2026-03-30 13h59.34.470049 +0200,
,69,0,69,,,,,,,,,,,,,,,,,,,,,,None,None,,,,,,,,,,,,,69,0,69,0,981.6742077999806,,,,,,,,,,,,,,,,,,,,,,,,,,,,,,,,,,,,,,,,,,,,,,,,clips/clip_wurst_13_sub_0.mp4,audios/clip_wurst_13_sub_0.mp3,audiovisual,981.6701052999997,982.059036599996,982.2590999999957,982.2590999999957,982.258948066654,992.0810821999912,991.8729638999794,991.8731095999829,[],991.9689959999814,991.9690880999842,None,991.9691444999771,991.9691660999961,None,,,,,,,,,,,,399,001,2026-03-30_13h59.33.957,exp_sofc,,2025.2.3,60.17111461228291,2026-03-30 13h59.34.470049 +0200,
,70,0,70,,,,,,,,,,,,,,,,,,,,,,None,None,,,,,,,,,,,,,70,0,70,0,992.0810821999912,,,,,,,,,,,,,,,,,,,,,,,,,,,,,,,,,,,,,,,,,,,,,,,,clips/clip_wurst_24_sub_1.mp4,audios/silence.mp3,visual,992.0747776999779,992.4835416999995,992.6838715999911,992.6838715999911,992.6835027666568,1004.1805945999804,993.9356426000013,1004.0019487999962,[],1004.0828498999763,1004.0828858999885,None,1004.0829401999945,1004.0829910999746,None,,,,,,,,,,,,399,001,2026-03-30_13h59.33.957,exp_sofc,,2025.2.3,60.17111461228291,2026-03-30 13h59.34.470049 +0200,
,71,0,71,,,,,,,,,,,,,,,,,,,,,,None,None,,,,,,,,,,,,,71,0,71,0,1004.1805945999804,,,,,,,,,,,,,,,,,,,,,,,,,,,,,,,,,,,,,,,,,,,,,,,,clips/clip_lied_03_sub_1.mp4,audios/silence.mp3,visual,1004.1746524999908,1004.5858709999884,1004.7856829999946,1004.7856829999946,1004.7855185666451,1015.4976848999795,1006.0374909999955,1015.3028507999843,[4.748977100010961],1015.4027400999912,1015.4027915999759,None,1015.40283799998,1015.4028612999828,None,,,,,,,,,,,,399,001,2026-03-30_13h59.33.957,exp_sofc,,2025.2.3,60.17111461228291,2026-03-30 13h59.34.470049 +0200,
,72,0,72,,,,,,,,,,,,,,,,,,,,,,None,None,,,,,,,,,,,,,72,0,72,0,1015.4976848999795,,,,,,,,,,,,,,,,,,,,,,,,,,,,,,,,,,,,,,,,,,,,,,,,clips/clip_weißt_20_nosub_1.mp4,audios/silence.mp3,visual,1015.4925202000013,1015.9116989999893,1016.1123572999786,1016.1123572999786,1016.1118361666488,1026.1321132000012,1017.3636455999804,1025.9438243999903,[8.302870500017889],1026.032464799995,1026.032498399989,None,1026.0325313999783,1026.032548099989,None,,,,,,,,,,,,399,001,2026-03-30_13h59.33.957,exp_sofc,,2025.2.3,60.17111461228291,2026-03-30 13h59.34.470049 +0200,
,73,0,73,,,,,,,,,,,,,,,,,,,,,,None,None,,,,,,,,,,,,,73,0,73,0,1026.1321132000012,,,,,,,,,,,,,,,,,,,,,,,,,,,,,,,,,,,,,,,,,,,,,,,,clips/clip_lied_09_nosub_1.mp4,audios/silence.mp3,visual,1026.126057299989,1026.5319842999743,1026.732675599982,1026.732675599982,1026.7326485666601,1037.3554782999854,1027.985003299982,1037.1653393000015,[],1037.265804499999,1037.2658783999796,None,1037.2659479999857,1037.2659823999857,None,,,,,,,,,,,,399,001,2026-03-30_13h59.33.957,exp_sofc,,2025.2.3,60.17111461228291,2026-03-30 13h59.34.470049 +0200,
,74,0,74,,,,,,,,,,,,,,,,,,,,,,None,None,,,,,,,,,,,,,74,0,74,0,1037.3554782999854,,,,,,,,,,,,,,,,,,,,,,,,,,,,,,,,,,,,,,,,,,,,,,,,clips/clip_wurst_16_sub_0.mp4,audios/silence.mp3,visual,1037.3491575999942,1037.771776199981,1037.9729579999985,1037.9729579999985,1037.9723441666613,1048.2128559999983,1039.2244099999953,1048.0045798999781,[],1048.0951577999804,1048.0951973999909,None,1048.0952734999883,1048.0953039999877,None,,,,,,,,,,,,399,001,2026-03-30_13h59.33.957,exp_sofc,,2025.2.3,60.17111461228291,2026-03-30 13h59.34.470049 +0200,
,75,0,75,,,,,,,,,,,,,,,,,,,,,,None,None,,,,,,,,,,,,,75,0,75,0,1048.2128559999983,,,,,,,,,,,,,,,,,,,,,,,,,,,,,,,,,,,,,,,,,,,,,,,,clips/clip_wurst_29_sub_1.mp4,audios/clip_wurst_29_sub_1.mp3,audiovisual,1048.20904289998,1048.5974273999745,1048.799508600001,1048.799508600001,1048.7976845666456,1061.0021815999935,1060.8163799999747,1060.81655399999,[],1060.8933560999867,1060.8933902999852,None,1060.8934546999808,1060.8934899999877,None,,,,,,,,,,,,399,001,2026-03-30_13h59.33.957,exp_sofc,,2025.2.3,60.17111461228291,2026-03-30 13h59.34.470049 +0200,
,76,0,76,,,,,,,,,,,,,,,,,,,,,,None,None,,,,,,,,,,,,,76,0,76,0,1061.0021815999935,,,,,,,,,,,,,,,,,,,,,,,,,,,,,,,,,,,,,,,,,,,,,,,,clips/clip_holo_10_nosub_1.mp4,audios/clip_holo_10_nosub_1.mp3,audiovisual,1060.997144699999,1061.4020536999742,1061.6028438999783,1061.6028438999783,1061.6022552666584,1071.749219499994,1071.567667700001,1071.5678604999848,[6.077285700011998],1071.6410844999773,1071.6411204999895,None,1071.6411934999924,1071.641223099985,None,,,,,,,,,,,,399,001,2026-03-30_13h59.33.957,exp_sofc,,2025.2.3,60.17111461228291,2026-03-30 13h59.34.470049 +0200,
,77,0,77,,,,,,,,,,,,,,,,,,,,,,2,None,3.1990127000026405,None,,,,,,,,,,,77,0,77,0,1071.749219499994,,,,,,,,,,,,,,,,,,,,,,,,,,,,,,,,,,,,,,,,,,,,,,,,clips/clip_claude_10_sub_0.mp4,audios/silence.mp3,visual,1071.7430853999977,1072.1525729999994,1072.3529325999843,1072.3529325999843,1072.3528346666465,1083.6705030000012,1073.605230999994,1083.571668199991,[],1083.6643634999928,1086.884029799985,2,1086.8840831999842,1086.8841012999765,None,2,1083.6705030000012,1083.6705030000012,1083.6705030000012,3.1990127000026405,None,,,,,,399,001,2026-03-30_13h59.33.957,exp_sofc,,2025.2.3,60.17111461228291,2026-03-30 13h59.34.470049 +0200,
,78,0,78,,,,,,,,,,,,,,,,,,,,,,1,None,3.2263449000020046,None,,,,,,,,,,,78,0,78,0,1087.0216051999887,,,,,,,,,,,,,,,,,,,,,,,,,,,,,,,,,,,,,,,,,,,,,,,,clips/clip_weißt_22_nosub_0.mp4,audios/clip_weißt_22_nosub_0.mp3,audiovisual,1087.0154121999803,1087.387669799995,1087.587954799994,1087.587954799994,1087.5893703666554,1098.8021619999781,,1098.689681799995,[],1098.7971312000009,1102.0414379999856,1,1102.0415027999843,1102.0415303999907,None,2,1098.8021619999781,1098.8021619999781,1098.8021619999781,3.2263449000020046,None,,,,,,399,001,2026-03-30_13h59.33.957,exp_sofc,,2025.2.3,60.17111461228291,2026-03-30 13h59.34.470049 +0200,
,79,0,79,,,,,,,,,,,,,,,,,,,,,,None,None,,,,,,,,,,,,,79,0,79,0,1102.1697790999897,,,,,,,,,,,,,,,,,,,,,,,,,,,,,,,,,,,,,,,,,,,,,,,,clips/clip_wurst_21_sub_0.mp4,audios/clip_wurst_21_sub_0.mp3,audiovisual,1102.165085399989,1102.5420257999795,1102.7429340999806,1102.7429340999806,1102.7426855666602,1113.4647288999986,1113.4647288999986,1113.2587442999939,[],1113.3565194999974,1113.3565528999898,None,1113.3565814999747,1113.3565978999832,None,,,,,,,,,,,,399,001,2026-03-30_13h59.33.957,exp_sofc,,2025.2.3,60.17111461228291,2026-03-30 13h59.34.470049 +0200,
,80,0,80,,,,,,,,,,,,,,,,,,,,,,None,None,,,,,,,,,,,,,80,0,80,0,1113.4647288999986,,,,,,,,,,,,,,,,,,,,,,,,,,,,,,,,,,,,,,,,,,,,,,,,clips/clip_weißt_15_nosub_1.mp4,audios/silence.mp3,visual,1113.458973699977,1113.8678559999971,1114.068489600002,1114.068489600002,1114.0682112666584,1125.200877299998,1115.3200921999814,1124.985855099978,"[3.247103600006085, 5.191883299994515]",1125.0727887999965,1125.072859899985,None,1125.0729403999867,1125.0729664999817,None,,,,,,,,,,,,399,001,2026-03-30_13h59.33.957,exp_sofc,,2025.2.3,60.17111461228291,2026-03-30 13h59.34.470049 +0200,
,81,0,81,,,,,,,,,,,,,,,,,,,,,,None,None,,,,,,,,,,,,,81,0,81,0,1125.200877299998,,,,,,,,,,,,,,,,,,,,,,,,,,,,,,,,,,,,,,,,,,,,,,,,clips/clip_holo_14_nosub_0.mp4,audios/clip_holo_14_nosub_0.mp3,audiovisual,1125.1962333999982,1125.5849560999777,1125.7864684999804,1125.7864684999804,1125.7861911666444,1136.0241367999988,1135.8176475999935,1135.8177825999737,[],1135.902292099985,1135.902330699988,None,1135.9023715999792,1135.902394899982,None,,,,,,,,,,,,399,001,2026-03-30_13h59.33.957,exp_sofc,,2025.2.3,60.17111461228291,2026-03-30 13h59.34.470049 +0200,
,82,0,82,,,,,,,,,,,,,,,,,,,,,,None,None,,,,,,,,,,,,,82,0,82,0,1136.0241367999988,,,,,,,,,,,,,,,,,,,,,,,,,,,,,,,,,,,,,,,,,,,,,,,,clips/clip_dampf_03_sub_1.mp4,audios/clip_dampf_03_sub_1.mp3,audiovisual,1136.0187226999842,1136.4109437000006,1136.6109767999733,1136.6109767999733,1136.6109571666495,1144.4201706999738,1144.2393344999873,1144.2395106999902,[7.815823299984913],1144.324743199977,1144.3248250999895,None,1144.3248951999994,1144.3249241999874,None,,,,,,,,,,,,399,001,2026-03-30_13h59.33.957,exp_sofc,,2025.2.3,60.17111461228291,2026-03-30 13h59.34.470049 +0200,
,83,0,83,,,,,,,,,,,,,,,,,,,,,,None,None,,,,,,,,,,,,,83,0,83,0,1144.4201706999738,,,,,,,,,,,,,,,,,,,,,,,,,,,,,,,,,,,,,,,,,,,,,,,,clips/clip_wurst_28_sub_1.mp4,audios/silence.mp3,visual,1144.4138438999944,1144.84061069999,1145.0406828999985,1145.0244267999951,1145.0239939666683,1155.5692684999958,1146.2752021999913,1155.356330199982,[],1155.4439959999872,1155.444073999999,None,1155.4442164999782,1155.4442452999938,None,,,,,,,,,,,,399,001,2026-03-30_13h59.33.957,exp_sofc,,2025.2.3,60.17111461228291,2026-03-30 13h59.34.470049 +0200,
,84,0,84,,,,,,,,,,,,,,,,,,,,,,None,None,,,,,,,,,,,,,84,0,84,0,1155.5692684999958,,,,,,,,,,,,,,,,,,,,,,,,,,,,,,,,,,,,,,,,,,,,,,,,clips/clip_wurst_27_nosub_1.mp4,audios/clip_wurst_27_nosub_1.mp3,audiovisual,1155.564224599977,1155.9533650999947,1156.1565594999993,1156.1565594999993,1156.1537625666572,1166.5618967999762,,1166.3538604999776,[6.002679099998204],1166.4485367999878,1166.448621299991,None,1166.4486903999932,1166.4487105000007,None,,,,,,,,,,,,399,001,2026-03-30_13h59.33.957,exp_sofc,,2025.2.3,60.17111461228291,2026-03-30 13h59.34.470049 +0200,
,85,0,85,,,,,,,,,,,,,,,,,,,,,,None,None,,,,,,,,,,,,,85,0,85,0,1166.5618967999762,,,,,,,,,,,,,,,,,,,,,,,,,,,,,,,,,,,,,,,,,,,,,,,,clips/clip_weißt_11_nosub_0.mp4,audios/silence.mp3,visual,1166.555942499981,1166.9616224999772,1167.1630992999999,1167.1630992999999,1167.1625921666603,1177.3987860999769,1168.413945999986,1177.1954698999762,[],1177.2920650999877,1177.2921070999873,None,1177.2921389999974,1177.292158199998,None,,,,,,,,,,,,399,001,2026-03-30_13h59.33.957,exp_sofc,,2025.2.3,60.17111461228291,2026-03-30 13h59.34.470049 +0200,
,86,0,86,,,,,,,,,,,,,,,,,,,,,,None,None,,,,,,,,,,,,,86,0,86,0,1177.3987860999769,,,,,,,,,,,,,,,,,,,,,,,,,,,,,,,,,,,,,,,,,,,,,,,,clips/clip_hund_18_sub_1.mp4,audios/silence.mp3,visual,1177.3926969000022,1177.8042818999966,1178.0050092999882,1178.0050092999882,1178.0046685666641,1188.2272451999888,1179.2568862999906,1188.03687109999,[7.00639179997961],1188.1261680999887,1188.126247999986,None,1188.1262978999875,1188.1263193999766,None,,,,,,,,,,,,399,001,2026-03-30_13h59.33.957,exp_sofc,,2025.2.3,60.17111461228291,2026-03-30 13h59.34.470049 +0200,
,87,0,87,,,,,,,,,,,,,,,,,,,,,,1,None,3.0302148000046145,None,,,,,,,,,,,87,0,87,0,1188.2272451999888,,,,,,,,,,,,,,,,,,,,,,,,,,,,,,,,,,,,,,,,,,,,,,,,clips/clip_lied_01_nosub_1.mp4,audios/silence.mp3,visual,1188.2210314999975,1188.6268772999756,1188.827775199985,1188.827775199985,1188.8270652666436,1198.9697062999767,1190.079273099982,1198.859596299997,[4.95344759998261],1198.9646303999762,1202.0095235999906,1,1202.0095911999815,1202.0096155999927,None,1,1198.9697062999767,1198.9697062999767,1198.9697062999767,3.0302148000046145,None,,,,,,399,001,2026-03-30_13h59.33.957,exp_sofc,,2025.2.3,60.17111461228291,2026-03-30 13h59.34.470049 +0200,
,88,0,88,,,,,,,,,,,,,,,,,,,,,,None,None,,,,,,,,,,,,,88,0,88,0,1202.1354995000002,,,,,,,,,,,,,,,,,,,,,,,,,,,,,,,,,,,,,,,,,,,,,,,,clips/clip_hund_14_sub_2.mp4,audios/silence.mp3,visual,1202.1291244999738,1202.5094159999862,1202.709839999996,1202.709839999996,1202.709668266649,1212.8057908999908,1203.9613627999788,1212.6089016999758,[5.9892866000009235],1212.7006544999895,1212.7006851999904,None,1212.7007160999929,1212.7007305999869,None,,,,,,,,,,,,399,001,2026-03-30_13h59.33.957,exp_sofc,,2025.2.3,60.17111461228291,2026-03-30 13h59.34.470049 +0200,
,89,0,89,,,,,,,,,,,,,,,,,,,,,,None,None,,,,,,,,,,,,,89,0,89,0,1212.8057908999908,,,,,,,,,,,,,,,,,,,,,,,,,,,,,,,,,,,,,,,,,,,,,,,,clips/clip_claude_22_sub_2.mp4,audios/silence.mp3,visual,1212.8000868999807,1213.2017345999775,1213.4016141999746,1213.4016141999746,1213.4012008666507,1224.3372035999782,1214.6531089999771,1224.1511868999805,[],1224.2377917999984,1224.2378281999845,None,1224.237862399983,1224.2378787999914,None,,,,,,,,,,,,399,001,2026-03-30_13h59.33.957,exp_sofc,,2025.2.3,60.17111461228291,2026-03-30 13h59.34.470049 +0200,
,90,0,90,,,,,,,,,,,,,,,,,,,,,,None,None,,,,,,,,,,,,,90,0,90,0,1224.3372035999782,,,,,,,,,,,,,,,,,,,,,,,,,,,,,,,,,,,,,,,,,,,,,,,,clips/clip_claude_29_nosub_0.mp4,audios/silence.mp3,visual,1224.3311906000017,1224.7366962999804,1224.937218499981,1224.937218499981,1224.937240866657,1235.1722136999888,1226.188969299983,1234.9694198999787,[],1235.0653564999811,1235.0653914999857,None,1235.0654321999755,1235.0655038999976,None,,,,,,,,,,,,399,001,2026-03-30_13h59.33.957,exp_sofc,,2025.2.3,60.17111461228291,2026-03-30 13h59.34.470049 +0200,
,91,0,91,,,,,,,,,,,,,,,,,,,,,,None,None,,,,,,,,,,,,,91,0,91,0,1235.1722136999888,,,,,,,,,,,,,,,,,,,,,,,,,,,,,,,,,,,,,,,,,,,,,,,,clips/clip_holo_07_sub_0.mp4,audios/silence.mp3,visual,1235.1630434999825,1235.5790746999846,1235.7800488999928,1235.7800488999928,1235.7797691666676,1245.3735867999785,1237.0309189999825,1245.177082899987,[],1245.2661248999939,1245.266177499987,None,1245.2662314999907,1245.2662540999881,None,,,,,,,,,,,,399,001,2026-03-30_13h59.33.957,exp_sofc,,2025.2.3,60.17111461228291,2026-03-30 13h59.34.470049 +0200,
,92,0,92,,,,,,,,,,,,,,,,,,,,,,None,None,,,,,,,,,,,,,92,0,92,0,1245.3735867999785,,,,,,,,,,,,,,,,,,,,,,,,,,,,,,,,,,,,,,,,,,,,,,,,clips/clip_lied_16_sub_2.mp4,audios/silence.mp3,visual,1245.3679429999902,1245.7697868999967,1245.9705833999906,1245.9705833999906,1245.9699198666533,1256.7658652999962,1247.2222440999758,1256.5540481999924,"[3.9370280999864917, 7.877179200004321]",1256.642328099988,1256.642448699975,None,1256.6426186999888,1256.6426468999998,None,,,,,,,,,,,,399,001,2026-03-30_13h59.33.957,exp_sofc,,2025.2.3,60.17111461228291,2026-03-30 13h59.34.470049 +0200,
,93,0,93,,,,,,,,,,,,,,,,,,,,,,None,None,,,,,,,,,,,,,93,0,93,0,1256.7658652999962,,,,,,,,,,,,,,,,,,,,,,,,,,,,,,,,,,,,,,,,,,,,,,,,clips/clip_wurst_06_nosub_2.mp4,audios/clip_wurst_06_nosub_2.mp3,audiovisual,1256.7618016999913,1257.1501708999858,1257.351101599983,1257.351101599983,1257.35049596665,1268.6322944999847,1268.4509927999752,1268.4511237999832,"[2.652013300015824, 8.384083300014026]",1268.5267401999736,1268.5267958999902,None,1268.5268333999848,1268.5268509000016,None,,,,,,,,,,,,399,001,2026-03-30_13h59.33.957,exp_sofc,,2025.2.3,60.17111461228291,2026-03-30 13h59.34.470049 +0200,
,94,0,94,,,,,,,,,,,,,,,,,,,,,,None,None,,,,,,,,,,,,,94,0,94,0,1268.6322944999847,,,,,,,,,,,,,,,,,,,,,,,,,,,,,,,,,,,,,,,,,,,,,,,,clips/clip_dampf_04_nosub_1.mp4,audios/silence.mp3,visual,1268.6262807999738,1269.0372585000005,1269.2527902000002,1269.2359356999805,1269.235798666665,1279.1011042999744,1270.4888967000006,1278.8673203999933,[5.020668199984357],1278.9689723999763,1278.9690105999762,None,1278.9690477999975,1278.9690646999807,None,,,,,,,,,,,,399,001,2026-03-30_13h59.33.957,exp_sofc,,2025.2.3,60.17111461228291,2026-03-30 13h59.34.470049 +0200,
,95,0,95,,,,,,,,,,,,,,,,,,,,,,4,None,4.085380399978021,None,,,,,,,,,,,95,0,95,0,1279.1011042999744,,,,,,,,,,,,,,,,,,,,,,,,,,,,,,,,,,,,,,,,,,,,,,,,clips/clip_hund_07_sub_1.mp4,audios/clip_hund_07_sub_1.mp3,audiovisual,1279.0955223999918,1279.468897999992,1279.6689149999875,1279.6689149999875,1279.6688903666548,1291.3847591999802,1291.3847591999802,1291.286983899976,[6.546283000003314],1291.3788767999795,1295.4852622999751,4,1295.4853231000016,1295.4853473999829,None,4,1291.3847591999802,1291.3847591999802,1291.3847591999802,4.085380399978021,None,,,,,,399,001,2026-03-30_13h59.33.957,exp_sofc,,2025.2.3,60.17111461228291,2026-03-30 13h59.34.470049 +0200,
,96,0,96,,,,,,,,,,,,,,,,,,,,,,None,None,,,,,,,,,,,,,96,0,96,0,1295.614603599999,,,,,,,,,,,,,,,,,,,,,,,,,,,,,,,,,,,,,,,,,,,,,,,,clips/clip_lied_08_sub_1.mp4,audios/clip_lied_08_sub_1.mp3,audiovisual,1295.6108009999734,1295.9857119999942,1296.18703619999,1296.18703619999,1296.1866706666517,1305.4919415999902,,1305.2939355999988,[],1305.3625749999774,1305.3626067999867,None,1305.362636099977,1305.362652299984,None,,,,,,,,,,,,399,001,2026-03-30_13h59.33.957,exp_sofc,,2025.2.3,60.17111461228291,2026-03-30 13h59.34.470049 +0200,
,97,0,97,,,,,,,,,,,,,,,,,,,,,,None,None,,,,,,,,,,,,,97,0,97,0,1305.4919415999902,,,,,,,,,,,,,,,,,,,,,,,,,,,,,,,,,,,,,,,,,,,,,,,,clips/clip_claude_11_sub_0.mp4,audios/clip_claude_11_sub_0.mp3,audiovisual,1305.4859476999845,1305.8763086999825,1306.0766714999918,1306.0766714999918,1306.0764507666502,1316.3519868000003,1316.109563599981,1316.1097379999992,[],1316.2186252999818,1316.2186590999772,None,1316.2186945999856,1316.218711900001,None,,,,,,,,,,,,399,001,2026-03-30_13h59.33.957,exp_sofc,,2025.2.3,60.17111461228291,2026-03-30 13h59.34.470049 +0200,
,98,0,98,,,,,,,,,,,,,,,,,,,,,,3,None,4.72120719999657,None,,,,,,,,,,,98,0,98,0,1316.3519868000003,,,,,,,,,,,,,,,,,,,,,,,,,,,,,,,,,,,,,,,,,,,,,,,,clips/clip_weißt_25_sub_1.mp4,audios/clip_weißt_25_sub_1.mp3,audiovisual,1316.3458164999902,1316.7181814999785,1316.9182371999777,1316.9182371999777,1316.9180213666443,1329.0472693999764,1328.9369680999953,1328.9371862999978,[5.14881460001925],1329.0419706999965,1333.7718969999987,3,1333.771960299986,1333.7719857999764,None,3,1329.0472693999764,1329.0472693999764,1329.0472693999764,4.72120719999657,None,,,,,,399,001,2026-03-30_13h59.33.957,exp_sofc,,2025.2.3,60.17111461228291,2026-03-30 13h59.34.470049 +0200,
,99,0,99,,,,,,,,,,,,,,,,,,,,,,,,,,,,,,,,,,,,99,0,99,0,,,,,,,,,,,,,,,,,,,,,,,,,,,,,,,,,,,,,,,,,,,,,,,,,clips/clip_weißt_02_sub_0.mp4,audios/silence.mp3,visual,,,,,,,,,,,,,,,,,,,,,,,,,,,,,,,,,,,
