instruction_text,thisN,thisTrialN,thisRepN,key_resp_instruction.keys,key_resp_instruction.rt,key_resp_instruction.duration,clip_file,clip_path,sound_path,movie,subtitles,n_cut,clip_num,first_cut,second_cut,clip_duration,attention_check_question,attention_check_correct,attention_check_distractor_1,attention_check_distractor_2,attention_check_distractor_3,prac_attention_resp.keys,prac_attention_resp.rt,prac_attention_resp.duration,exp_atttention_resp.keys,exp_pause_resp.keys,exp_atttention_resp.rt,exp_atttention_resp.duration,exp_pause_resp.rt,exp_pause_resp.duration,instruction_trials.thisRepN,instruction_trials.thisTrialN,instruction_trials.thisN,instruction_trials.thisIndex,practice_trials.thisRepN,practice_trials.thisTrialN,practice_trials.thisN,practice_trials.thisIndex,experiment_trials.thisRepN,experiment_trials.thisTrialN,experiment_trials.thisN,experiment_trials.thisIndex,thisRow.t,notes,assigned_ls_group,instructions.started,text_instruction.started,key_resp_instruction.started,instructions.stopped,instruction_trials.key_resp_instruction.keys,instruction_trials.key_resp_instruction.rt,instruction_trials.key_resp_instruction.duration,informed_consent.started,slider_informed_consent.started,text_informed_consent.started,informed_consent.stopped,slider_informed_consent.response,slider_informed_consent.rt,begin_practice.started,begin_practice_text.started,begin_practice.stopped,Practice_clip_name,Practice_video_used,Practice_audio_used,Practice_modality,Practice_subtitles,Practice_attention_check,practice_clip.started,prac_feedback.started,prac_fixation_cross.started,prac_fixation_cross.stopped,prac_clip.started,prac_sound.started,prac_clip.stopped,practice_clip.stopped,Practice_all_cut_rts,Practice_correct_key_required,practice_attention_check.started,prac_attention_resp.started,prac_question.started,prac_options.started,practice_attention_check.stopped,practice_trials.prac_attention_resp.keys,practice_trials.prac_attention_resp.rt,practice_trials.prac_attention_resp.duration,prac_sound.stopped,begin_experiment.started,begin_experiment_text.started,begin_experiment_text.stopped,begin_experiment.stopped,video_used,audio_used,condition_modality,experiment_clip.started,exp_fixation_cross.started,exp_clip.started,exp_sound.started,exp_fixation_cross.stopped,exp_sound.stopped,exp_clip.stopped,experiment_clip.stopped,all_cut_rts,experiment_attention_check.started,experiment_attention_check.stopped,experiment_trials.exp_atttention_resp.keys,experiment_pause.started,experiment_pause.stopped,experiment_trials.exp_pause_resp.keys,correct_key_required,exp_atttention_resp.started,exp_question.started,exp_options.started,experiment_trials.exp_atttention_resp.rt,experiment_trials.exp_atttention_resp.duration,exp_pause_text.started,exp_pause_resp.started,exp_countdown.started,exp_pause_resp.stopped,exp_countdown.stopped,experiment_trials.exp_pause_resp.rt,experiment_trials.exp_pause_resp.duration,participant,session,date,expName,expVersion,psychopyVersion,frameRate,expStart,
"Herzlich willkommen!

Vielen Dank, dass Sie an unserer Studie teilnehmen. Die Untersuchung wird insgesamt etwa 35 Minuten in Anspruch nehmen.

Bevor wir beginnen, beachten Sie bitte folgende Voraussetzungen für die Teilnahme:
• Sie sind mindestens 18 Jahre alt.
• Ihre Muttersprache ist Deutsch.

(Drücken Sie die Leertaste, um fortzufahren)",0,0,0,space,2.3994268999958877,None,,,,,,,,,,,,,,,,,,,,,,,,,0,0,0,0,,,,,,,,,0.03416859998833388,,1,0.007118100009392947,0.03416859998833388,0.03416859998833388,2.438854000007268,space,2.3994268999958877,None,,,,,,,,,,,,,,,,,,,,,,,,,,,,,,,,,,,,,,,,,,,,,,,,,,,,,,,,,,,,,,,,,,,,,,600683,001,2026-03-30_14h43.13.745,exp_sofc,,2025.2.3,59.6727783479875,2026-03-30 14h43.14.484219 +0200,
"Ablauf der Studie

Ihnen werden in schneller Abfolge viele kurze Filmclips gezeigt.
Ihre Aufgabe ist einfach:

Drücken Sie jedes Mal die Leertaste, wenn Sie einen Filmschnitt (Cut) erkennen.

Zusätzlich werden Ihnen gelegentlich kurze Verständnisfragen zu den gezeigten Clips gestellt.

(Drücken Sie die Leertaste, um fortzufahren),",1,1,0,space,0.9561595999985002,None,,,,,,,,,,,,,,,,,,,,,,,,,0,1,1,1,,,,,,,,,2.4595773000037298,,,2.438959799997974,2.4595773000037298,2.4595773000037298,3.420258099999046,space,0.9561595999985002,None,,,,,,,,,,,,,,,,,,,,,,,,,,,,,,,,,,,,,,,,,,,,,,,,,,,,,,,,,,,,,,,,,,,,,,600683,001,2026-03-30_14h43.13.745,exp_sofc,,2025.2.3,59.6727783479875,2026-03-30 14h43.14.484219 +0200,
"Freiwilligkeit Ihrer Teilnahme

Ihre Teilnahme an dieser Studie ist absolut freiwillig. Sie können das Experiment jederzeit und ohne Angabe von Gründen abbrechen, ohne dass Ihnen daraus irgendwelche Nachteile entstehen.

Sollten Sie die Studie vorzeitig beenden, werden Ihre bis dahin erhobenen Daten umgehend gelöscht und nicht gespeichert.

(Drücken Sie die Leertaste, um fortzufahren)",2,2,0,space,0.6915740999975242,None,,,,,,,,,,,,,,,,,,,,,,,,,0,2,2,2,,,,,,,,,3.4447301999898627,,,3.420402399991872,3.4447301999898627,3.4447301999898627,4.13763499999186,space,0.6915740999975242,None,,,,,,,,,,,,,,,,,,,,,,,,,,,,,,,,,,,,,,,,,,,,,,,,,,,,,,,,,,,,,,,,,,,,,,600683,001,2026-03-30_14h43.13.745,exp_sofc,,2025.2.3,59.6727783479875,2026-03-30 14h43.14.484219 +0200,
"Datenschutz und Anonymität

Die Erhebung und Auswertung Ihrer Daten erfolgt am Fachbereich Psychologie der Universität Tübingen und ist vollständig anonym. Ihr Name wird zu keinem Zeitpunkt erfragt oder gespeichert. Niemand wird Ihre Daten mit Ihrer Person in Verbindung bringen können.

Die anonymisierten Experimentaldaten werden nach Abschluss der Erhebung für mindestens 10 Jahre gespeichert und zu Forschungszwecken in einer öffentlichen Datenbank zugänglich gemacht.

(Drücken Sie die Leertaste, um fortzufahren),",3,3,0,space,1.0960331999813206,None,,,,,,,,,,,,,,,,,,,,,,,,,0,3,3,3,,,,,,,,,4.231624000007287,,,4.137775700015482,4.231624000007287,4.231624000007287,5.330952299991623,space,1.0960331999813206,None,,,,,,,,,,,,,,,,,,,,,,,,,,,,,,,,,,,,,,,,,,,,,,,,,,,,,,,,,,,,,,,,,,,,,,600683,001,2026-03-30_14h43.13.745,exp_sofc,,2025.2.3,59.6727783479875,2026-03-30 14h43.14.484219 +0200,
"Einverständniserklärung

Bitte lesen Sie die folgende Erklärung aufmerksam durch:

Ich bestätige, dass ich über 18 Jahre alt bin und ausreichend Zeit hatte, mich für die Teilnahme zu entscheiden. Ich wurde über die Erhebung, Verarbeitung und öffentliche Zugänglichmachung meiner anonymisierten Daten angemessen informiert.
Ich bin mir bewusst, dass ich das Experiment jederzeit abbrechen kann.

(Drücken Sie die Leertaste, um fortzufahren)",4,4,0,space,0.6947644999891054,None,,,,,,,,,,,,,,,,,,,,,,,,,0,4,4,4,,,,,,,,,5.353986600006465,,,5.33109369999147,5.353986600006465,5.353986600006465,6.065216599992709,space,0.6947644999891054,None,,,,,,,,,,,,,,,,,,,,,,,,,,,,,,,,,,,,,,,,,,,,,,,,,,,,,,,,,,,,,,,,,,,,,,600683,001,2026-03-30_14h43.13.745,exp_sofc,,2025.2.3,59.6727783479875,2026-03-30 14h43.14.484219 +0200,
,,,,,,,,,,,,,,,,,,,,,,,,,,,,,,,,,,,,,,,,,,,,,,,,,,,,,6.0661677999887615,6.081699700007448,6.081699700007448,7.9352080000098795,ich stimme zu,1.8536897999874782,,,,,,,,,,,,,,,,,,,,,,,,,,,,,,,,,,,,,,,,,,,,,,,,,,,,,,,,,,,,,,,,600683,001,2026-03-30_14h43.13.745,exp_sofc,,2025.2.3,59.6727783479875,2026-03-30 14h43.14.484219 +0200,
,,,,,,,,,,,,,,,,,,,,,,,,,,,,,,,,,,,,,,,,,,,,,,,,,,,,,,,,,,,7.935242100007599,7.95292400001199,12.943762999988394,,,,,,,,,,,,,,,,,,,,,,,,,,,,,,,,,,,,,,,,,,,,,,,,,,,,,,,,,,,,,600683,001,2026-03-30_14h43.13.745,exp_sofc,,2025.2.3,59.6727783479875,2026-03-30 14h43.14.484219 +0200,
,0,0,0,,,,clip_hund_25_sub_1,clips/clip_hund_25_sub_1.mp4,audios/silence.mp3,hund,sub,1,25,5466.0,NA,8300,Mit was essen die Personen?,mit ihren Händen,mit Messer und Gabel,mit Stäbchen,mit einem Löffel,3,2.118774000002304,None,,,,,,,,,,,0,0,0,11,,,,,13.093709700013278,,,,,,,,,,,,,,,,,,,clip_wurst_09_sub_1,clips/clip_wurst_09_sub_1.mp4,audios/clip_wurst_09_sub_1.mp3,audiovisual,sub,True,13.088004599994747,13.093709700013278,13.435816200013505,13.635192299989285,13.635192299989285,13.635618466654948,25.05752490001032,24.937157800013665,[4.740885000006529],3,25.05007480000495,25.05752490001032,25.05752490001032,25.05752490001032,27.181090199999744,3,2.118774000002304,None,,,,,,,,,,,,,,,,,,,,,,,,,,,,,,,,,,,,,600683,001,2026-03-30_14h43.13.745,exp_sofc,,2025.2.3,59.6727783479875,2026-03-30 14h43.14.484219 +0200,
,1,1,0,,,,clip_hund_26_sub_1,clips/clip_hund_26_sub_1.mp4,audios/silence.mp3,hund,sub,0,26,NA,NA,9333,Wie wirkt die Frau?,amüsiert,hasserfüllt,traurig,ängstlich,None,,,,,,,,,,,,,0,1,1,3,,,,,27.297592199989595,,,,,,,,,,,,,,,,,,,clip_hund_25_sub_1,clips/clip_hund_25_sub_1.mp4,audios/silence.mp3,visual,sub,False,27.291161100001773,27.297592199989595,27.681925599987153,27.881759300013073,27.881759300013073,27.881880366654755,36.43871769998805,36.21395440000924,[7.275734000024386],,36.310436700005084,,,,36.31046969999443,None,,,29.133528700011084,,,,,,,,,,,,,,,,,,,,,,,,,,,,,,,,,,,,600683,001,2026-03-30_14h43.13.745,exp_sofc,,2025.2.3,59.6727783479875,2026-03-30 14h43.14.484219 +0200,
,2,2,0,,,,clip_weißt_05_sub_0,clips/clip_weißt_05_sub_0.mp4,audios/clip_weißt_05_sub_0.mp3,weißt,sub,0,5,NA,NA,9767,Wer trägt die Leiter?,die Frau,der Mann,beide,keiner,None,,,,,,,,,,,,,0,2,2,0,,,,,36.43871769998805,,,,,,,,,,,,,,,,,,,clip_weißt_18_nosub_1,clips/clip_weißt_18_nosub_1.mp4,audios/silence.mp3,visual,nosub,False,36.4302672999911,36.43871769998805,36.812280000012834,37.0142998000083,37.0142998000083,37.02013146668129,49.27168299999903,49.049391700013075,[6.834988600021461],,49.15615059999982,,,,49.156190200010315,None,,,38.26433629999519,,,,,,,,,,,,,,,,,,,,,,,,,,,,,,,,,,,,600683,001,2026-03-30_14h43.13.745,exp_sofc,,2025.2.3,59.6727783479875,2026-03-30 14h43.14.484219 +0200,
,3,3,0,,,,clip_weißt_09_sub_1,clips/clip_weißt_09_sub_1.mp4,audios/silence.mp3,weißt,sub,1,9,4866.0,NA,9000,Was macht die Frau?,sie wickelt ein Band auf,sie näht,sie strickt,sie faltet Wäsche,2,187.87561509999796,None,,,,,,,,,,,0,3,3,5,,,,,49.27168299999903,,,,,,,,,,,,,,,,,,,clip_weißt_21_nosub_0,clips/clip_weißt_21_nosub_0.mp4,audios/silence.mp3,visual,nosub,True,49.263214700011304,49.27168299999903,49.66544079998857,49.86695230001351,49.86695230001351,49.86592656665404,60.09414490000927,59.96547160000773,[],2,60.087223000009544,60.09414490000927,60.09414490000927,60.09414490000927,247.97472100000596,2,187.87561509999796,None,51.118015199986985,,,,,,,,,,,,,,,,,,,,,,,,,,,,,,,,,,,,600683,001,2026-03-30_14h43.13.745,exp_sofc,,2025.2.3,59.6727783479875,2026-03-30 14h43.14.484219 +0200,
,4,4,0,,,,clip_weißt_10_nosub_1,clips/clip_weißt_10_nosub_1.mp4,audios/clip_weißt_10_nosub_1.mp3,weißt,nosub,1,10,4280.0,NA,11000,Was macht der Mann?,er greift an den Fernseher,er schaltet das Radio ein,er wirft eine Flasche,er öffnet das Fenster,None,,,,,,,,,,,,,0,4,4,6,,,,,248.09220469999127,,,,,,,,,,,,,,,,,,,clip_hund_02_sub_1,clips/clip_hund_02_sub_1.mp4,audios/clip_hund_02_sub_1.mp3,audiovisual,sub,False,248.0862415000156,248.09220469999127,248.47684730001492,248.67713500000536,248.67713500000536,248.67651686666457,258.79594420001376,258.59468080001534,[9.668896899995161],,258.68232280001394,,,,258.68235740001546,None,,,258.79594420001376,,,,,,,,,,,,,,,,,,,,,,,,,,,,,,,,,,,,600683,001,2026-03-30_14h43.13.745,exp_sofc,,2025.2.3,59.6727783479875,2026-03-30 14h43.14.484219 +0200,
,5,5,0,,,,clip_hund_28_nosub_0,clips/clip_hund_28_nosub_0.mp4,audios/clip_hund_28_nosub_0.mp3,hund,nosub,0,28,NA,NA,9840,Was steht auf dem Tisch vor den Personen?,Weinflasche mit Gläsern,Wasser,Bier,Kaffee,None,,,,,,,,,,,,,0,5,5,4,,,,,258.79594420001376,,,,,,,,,,,,,,,,,,,clip_weißt_09_sub_1,clips/clip_weißt_09_sub_1.mp4,audios/silence.mp3,visual,sub,False,258.7876169999945,258.79594420001376,259.18601320000016,259.4021339000028,259.38567389998934,259.3839626666779,268.65537640001276,268.4158633000043,[5.948640099988552],,268.5286754000117,,,,268.5287083000003,None,,,260.63575590000255,,,,,,,,,,,,,,,,,,,,,,,,,,,,,,,,,,,,600683,001,2026-03-30_14h43.13.745,exp_sofc,,2025.2.3,59.6727783479875,2026-03-30 14h43.14.484219 +0200,
,6,6,0,,,,clip_wurst_09_sub_1,clips/clip_wurst_09_sub_1.mp4,audios/clip_wurst_09_sub_1.mp3,wurst,sub,1,9,3666.0,NA,11267,Wer sind die alten Menschen wahrscheinlich?,Großeltern,Eltern,Geschwister,Nachbarn,2,3.135021299996879,None,,,,,,,,,,,0,6,6,10,,,,,268.65537640001276,,,,,,,,,,,,,,,,,,,clip_hund_06_nosub_0,clips/clip_hund_06_nosub_0.mp4,audios/clip_hund_06_nosub_0.mp3,audiovisual,nosub,True,268.6475482000096,268.65537640001276,269.03844790000585,269.24026190000586,269.24026190000586,269.23875446667466,280.2516704000009,280.12413209999795,[],2,280.2469401000126,280.2516704000009,280.2516704000009,280.2516704000009,283.3947568000003,2,3.135021299996879,None,280.2516704000009,,,,,,,,,,,,,,,,,,,,,,,,,,,,,,,,,,,,600683,001,2026-03-30_14h43.13.745,exp_sofc,,2025.2.3,59.6727783479875,2026-03-30 14h43.14.484219 +0200,
,7,7,0,,,,clip_weißt_21_nosub_0,clips/clip_weißt_21_nosub_0.mp4,audios/silence.mp3,weißt,nosub,0,21,NA,NA,10080,Wo stehen die Personen?,am Balkongeländer,am Strand,an einer Bushaltestelle,im Wald,None,,,,,,,,,,,,,0,7,7,1,,,,,283.52586059999885,,,,,,,,,,,,,,,,,,,clip_weißt_10_nosub_1,clips/clip_weißt_10_nosub_1.mp4,audios/clip_weißt_10_nosub_1.mp3,audiovisual,nosub,False,283.51920929999324,283.52586059999885,283.8943580999912,284.0966372000112,284.0966372000112,284.0951643666815,295.34691510000266,295.11236780000036,[5.303485500015086],,295.22385660000145,,,,295.22388770000543,None,,,295.1109815000091,,,,,,,,,,,,,,,,,,,,,,,,,,,,,,,,,,,,600683,001,2026-03-30_14h43.13.745,exp_sofc,,2025.2.3,59.6727783479875,2026-03-30 14h43.14.484219 +0200,
,8,8,0,,,,clip_hund_31_sub_0,clips/clip_hund_31_sub_0.mp4,audios/silence.mp3,hund,sub,1,31,1966.0,NA,8433,Welche Tageszeit ist es?,abends,morgens,mittags,nachts,None,,,,,,,,,,,,,0,8,8,9,,,,,295.34691510000266,,,,,,,,,,,,,,,,,,,clip_hund_28_nosub_0,clips/clip_hund_28_nosub_0.mp4,audios/clip_hund_28_nosub_0.mp3,audiovisual,nosub,False,295.34051400001044,295.34691510000266,295.7316201000067,295.9312874999887,295.9312874999887,295.93181266668057,306.0196556999872,305.797785200004,[],,305.90442740000435,,,,305.90446409999277,None,,,306.0196556999872,,,,,,,,,,,,,,,,,,,,,,,,,,,,,,,,,,,,600683,001,2026-03-30_14h43.13.745,exp_sofc,,2025.2.3,59.6727783479875,2026-03-30 14h43.14.484219 +0200,
,9,9,0,,,,clip_hund_06_nosub_0,clips/clip_hund_06_nosub_0.mp4,audios/clip_hund_06_nosub_0.mp3,hund,nosub,0,6,NA,NA,10860,Wie sieht das Studio aus?,unaufgeräumt,sehr ordentlich,komplett leer,stark überfüllt,None,,,,,,,,,,,,,0,9,9,2,,,,,306.0196556999872,,,,,,,,,,,,,,,,,,,clip_hund_26_sub_1,clips/clip_hund_26_sub_1.mp4,audios/silence.mp3,visual,sub,False,306.0127775000001,306.0196556999872,306.4145862000005,306.6146376999968,306.6146376999968,306.61538836665954,316.2046107999922,315.981200899987,[],,316.0915234000131,,,,316.09155969999847,None,,,307.8665156000061,,,,,,,,,,,,,,,,,,,,,,,,,,,,,,,,,,,,600683,001,2026-03-30_14h43.13.745,exp_sofc,,2025.2.3,59.6727783479875,2026-03-30 14h43.14.484219 +0200,
,10,10,0,,,,clip_hund_02_sub_1,clips/clip_hund_02_sub_1.mp4,audios/clip_hund_02_sub_1.mp3,hund,sub,1,2,8300.0,NA,9900,Welche Farbe hat der Pullover der Frau?,grün,schwarz,blau,rot,3,4.765706999984104,None,,,,,,,,,,,0,10,10,8,,,,,316.2046107999922,,,,,,,,,,,,,,,,,,,clip_weißt_05_sub_0,clips/clip_weißt_05_sub_0.mp4,audios/clip_weißt_05_sub_0.mp3,audiovisual,sub,True,316.1988941000018,316.2046107999922,316.5979755000153,316.7994177000073,316.7994177000073,316.79829156666915,326.72895459999563,326.6022892000037,[],3,326.7218084000051,326.72895459999563,326.72895459999563,326.72895459999563,331.50516820000485,3,4.765706999984104,None,,,,,,,,,,,,,,,,,,,,,,,,,,,,,,,,,,,,,600683,001,2026-03-30_14h43.13.745,exp_sofc,,2025.2.3,59.6727783479875,2026-03-30 14h43.14.484219 +0200,
,11,11,0,,,,clip_weißt_18_nosub_1,clips/clip_weißt_18_nosub_1.mp4,audios/silence.mp3,weißt,nosub,1,18,5680.0,NA,12000,Wie wirken die Personen?,überrascht,wütend,verzweifelt,gelangweilt,None,,,,,,,,,,,,,0,11,11,7,,,,,331.6156148999871,,,,,,,,,,,,,,,,,,,clip_hund_31_sub_0,clips/clip_hund_31_sub_0.mp4,audios/silence.mp3,visual,sub,False,331.60891609999817,331.6156148999871,332.01619299998856,332.2162496999954,332.2162496999954,332.2175018666642,340.7907298000064,340.6803915000055,[3.347186099999817],,340.7843658000056,,,,340.78439750001417,None,,,333.46794699999737,,,,,,,,,,,,,,,,,,,,,,,,,,,,,,,,,,,,600683,001,2026-03-30_14h43.13.745,exp_sofc,,2025.2.3,59.6727783479875,2026-03-30 14h43.14.484219 +0200,
,,,,,,,,,,,,,,,,,,,,,,,,,,,,,,,,,,,,,,,,,,,,,,,,,,,,,,,,,,,,,,,,,,,,,,,,,,,,,,,,,,,,,,,340.78447569999844,340.7907298000064,346.56671630000346,345.782601599989,,,,,,,,,,,,,,,,,,,,,,,,,,,,,,,,600683,001,2026-03-30_14h43.13.745,exp_sofc,,2025.2.3,59.6727783479875,2026-03-30 14h43.14.484219 +0200,
,0,0,0,,,,clip_claude_01_nosub_2,clips/clip_claude_01_nosub_2.mp4,audios/clip_claude_01_nosub_2.mp3,claude,nosub,2,1,5540.0,7380.0,10940,Wo befinden sich die Leute im Clip?,Auf einer Hochzeit,Auf einer Beerdigung,Auf einer Geburtstagsparty,Im Supermarkt,,,,None,None,,,,,,,,,,,,,0,0,0,0,346.56671630000346,,,,,,,,,,,,,,,,,,,,,,,,,,,,,,,,,,,,,,,,,,,,,,,,clips/clip_weißt_14_nosub_2.mp4,audios/clip_weißt_14_nosub_2.mp3,audiovisual,346.55526359999203,346.56671630000346,346.56671630000346,346.5657944333293,346.76706049998756,355.4970170999877,355.6991998000012,355.4972759000084,"[2.1688534000131767, 7.469476300000679]",355.5971101000032,355.597150000016,None,355.5971867000044,355.5972146000131,None,,,,,,,,,,,,,,600683,001,2026-03-30_14h43.13.745,exp_sofc,,2025.2.3,59.6727783479875,2026-03-30 14h43.14.484219 +0200,
,1,1,0,,,,clip_claude_01_sub_2,clips/clip_claude_01_sub_2.mp4,audios/clip_claude_01_sub_2.mp3,claude,sub,2,1,5600.0,7433.0,10933,Wo befinden sich die Leute im Clip?,Auf einer Hochzeit,Auf einer Beerdigung,Auf einer Geburtstagsparty,Im Supermarkt,,,,None,None,,,,,,,,,,,,,0,1,1,1,355.6991998000012,,,,,,,,,,,,,,,,,,,,,,,,,,,,,,,,,,,,,,,,,,,,,,,,clips/clip_hund_05_sub_0.mp4,audios/silence.mp3,visual,355.6931531000009,356.10620619999827,356.30669850000413,356.3063789666669,356.30669850000413,357.55860889999894,367.5265905999986,367.3247054000094,[4.206323799997335],367.4230175999983,367.4230843000114,None,367.4231308999879,367.4231480000017,None,,,,,,,,,,,,,,600683,001,2026-03-30_14h43.13.745,exp_sofc,,2025.2.3,59.6727783479875,2026-03-30 14h43.14.484219 +0200,
,2,2,0,,,,clip_claude_02_nosub_1,clips/clip_claude_02_nosub_1.mp4,audios/clip_claude_02_nosub_1.mp3,claude,nosub, ,2,4640.0,NA,9780,Wie sind die Personen gekleidet?,schick,leger,in Sportkleidung,in Badesachen,,,,None,None,,,,,,,,,,,,,0,2,2,2,367.5265905999986,,,,,,,,,,,,,,,,,,,,,,,,,,,,,,,,,,,,,,,,,,,,,,,,clips/clip_wurst_22_sub_0.mp4,audios/silence.mp3,visual,367.5206157999928,367.93296669999836,368.13434009999037,368.1340535666716,368.13434009999037,369.38611319998745,380.00497489998816,379.8190514000016,[],379.91123629998765,379.911271399993,None,379.91130899998825,379.91132579999976,None,,,,,,,,,,,,,,600683,001,2026-03-30_14h43.13.745,exp_sofc,,2025.2.3,59.6727783479875,2026-03-30 14h43.14.484219 +0200,
,3,3,0,,,,clip_claude_02_sub_1,clips/clip_claude_02_sub_1.mp4,audios/clip_claude_02_sub_1.mp3,claude,sub,1,2,4700.0,NA,9767,Wie sind die Personen gekleidet?,schick,leger,in Sportkleidung,in Badesachen,,,,None,None,,,,,,,,,,,,,0,3,3,3,380.00497489998816,,,,,,,,,,,,,,,,,,,,,,,,,,,,,,,,,,,,,,,,,,,,,,,,clips/clip_lied_05_nosub_0.mp4,audios/silence.mp3,visual,379.99899240001105,380.4217928000144,380.62176760000875,380.62225676665935,380.62176760000875,381.87352930000634,390.2241956999933,390.01990270000533,[],390.10896919999504,390.1090068999911,None,390.1090433000063,390.1090598999872,None,,,,,,,,,,,,,,600683,001,2026-03-30_14h43.13.745,exp_sofc,,2025.2.3,59.6727783479875,2026-03-30 14h43.14.484219 +0200,
,4,4,0,,,,clip_claude_03_nosub_1,clips/clip_claude_03_nosub_1.mp4,audios/clip_claude_03_nosub_1.mp3,claude,nosub,1,3,4000.0,NA,11500,Was trinken die beiden Personen?,Sekt,Wein,Bier,Wasser,,,,2,None,2.691599399986444,None,,,,,,,,,,,0,4,4,4,390.2241956999933,,,,,,,,,,,,,,,,,,,,,,,,,,,,,,,,,,,,,,,,,,,,,,,,clips/clip_lied_02_nosub_2.mp4,audios/clip_lied_02_nosub_2.mp3,audiovisual,390.2202542000159,390.61238490001415,390.81277540000156,390.81349066665666,390.81277540000156,401.9302199000085,401.9302199000085,401.8300234999915,"[4.030344500002684, 9.475660800002515]",401.92238689999795,404.6257624000136,2,404.62582190000103,404.6258395999903,None,2,401.9302199000085,401.9302199000085,401.9302199000085,2.691599399986444,None,,,,,,,,600683,001,2026-03-30_14h43.13.745,exp_sofc,,2025.2.3,59.6727783479875,2026-03-30 14h43.14.484219 +0200,
,5,5,0,,,,clip_claude_03_sub_1,clips/clip_claude_03_sub_1.mp4,audios/clip_claude_03_sub_1.mp3,claude,sub,1,3,4066.0,NA,11500,Was trinken die beiden Personen?,Sekt,Wein,Bier,Wasser,,,,None,None,,,,,,,,,,,,,0,5,5,5,404.74132969998755,,,,,,,,,,,,,,,,,,,,,,,,,,,,,,,,,,,,,,,,,,,,,,,,clips/clip_wurst_01_sub_0.mp4,audios/clip_wurst_01_sub_0.mp3,audiovisual,404.73495049998746,405.1245177999954,405.34193520000554,405.3410244666777,405.32435780001106,415.47557889999007,415.47557889999007,415.27327750000404,[],415.3552222000144,415.3552563000121,None,415.3552902000083,415.35530460000155,None,,,,,,,,,,,,,,600683,001,2026-03-30_14h43.13.745,exp_sofc,,2025.2.3,59.6727783479875,2026-03-30 14h43.14.484219 +0200,
,6,6,0,,,,clip_claude_04_nosub_2,clips/clip_claude_04_nosub_2.mp4,audios/clip_claude_04_nosub_2.mp3,claude,nosub,2,4,7360.0,8320.0,9000,Wo sitzen die Personen?,am Essenstisch,auf einer Baustelle,auf dem Boden,im Garten,,,,None,None,,,,,,,,,,,,,0,6,6,6,415.47557889999007,,,,,,,,,,,,,,,,,,,,,,,,,,,,,,,,,,,,,,,,,,,,,,,,clips/clip_hund_23_sub_1.mp4,audios/clip_hund_23_sub_1.mp3,audiovisual,415.47095270000864,415.86623909999616,416.06794660000014,416.06632816666774,416.06794660000014,427.19756510001025,427.19756510001025,426.9844313999929,[],427.085138800001,427.08517100001336,None,427.0852068999957,427.08522969999467,None,,,,,,,,,,,,,,600683,001,2026-03-30_14h43.13.745,exp_sofc,,2025.2.3,59.6727783479875,2026-03-30 14h43.14.484219 +0200,
,7,7,0,,,,clip_claude_04_sub_2,clips/clip_claude_04_sub_2.mp4,audios/clip_claude_04_sub_2.mp3,claude,sub,2,4,7400.0,8366.0,9000,Wo sitzen die Personen?,am Essenstisch,auf einer Baustelle,auf dem Boden,im Garten,,,,None,None,,,,,,,,,,,,,0,7,7,7,427.19756510001025,,,,,,,,,,,,,,,,,,,,,,,,,,,,,,,,,,,,,,,,,,,,,,,,clips/clip_herz_07_nosub_2.mp4,audios/clip_herz_07_nosub_2.mp3,audiovisual,427.1937203000125,427.5986717999913,427.79940630000783,427.79928176667113,427.79940630000783,440.0215609000006,440.0215609000006,439.82068910001544,"[4.126942800008692, 10.804058599984273]",439.91032429999905,439.91038019998814,None,439.9104221999878,439.91043839999475,None,,,,,,,,,,,,,,600683,001,2026-03-30_14h43.13.745,exp_sofc,,2025.2.3,59.6727783479875,2026-03-30 14h43.14.484219 +0200,
,8,8,0,,,,clip_claude_05_nosub_2,clips/clip_claude_05_nosub_2.mp4,audios/clip_claude_05_nosub_2.mp3,claude,nosub,1,5,3420.0,NA,11280,Wo befinden sich die beiden Personen?,im Auto,im Bus,in der U-Bahn,im Zug,,,,None,None,,,,,,,,,,,,,0,8,8,8,440.0215609000006,,,,,,,,,,,,,,,,,,,,,,,,,,,,,,,,,,,,,,,,,,,,,,,,clips/clip_lied_04_sub_0.mp4,audios/clip_lied_04_sub_0.mp3,audiovisual,440.0167453000031,440.4111831999908,440.6120792000147,440.61161296666637,440.6120792000147,451.8404562000069,451.8404562000069,451.6118023000017,[],451.70637830000487,451.7064238000021,None,451.7064703000069,451.70649320000666,None,,,,,,,,,,,,,,600683,001,2026-03-30_14h43.13.745,exp_sofc,,2025.2.3,59.6727783479875,2026-03-30 14h43.14.484219 +0200,
,9,9,0,,,,clip_claude_05_sub_2,clips/clip_claude_05_sub_2.mp4,audios/clip_claude_05_sub_2.mp3,claude,sub,1,5,3466.0,NA,11267,Wo befinden sich die beiden Personen?,im Auto,im Bus,in der U-Bahn,im Zug,,,,None,None,,,,,,,,,,,,,0,9,9,9,451.8404562000069,,,,,,,,,,,,,,,,,,,,,,,,,,,,,,,,,,,,,,,,,,,,,,,,clips/clip_wurst_21_nosub_0.mp4,audios/clip_wurst_21_nosub_0.mp3,audiovisual,451.83479560000706,452.21313730001566,452.41351750001195,452.41345476668016,452.41351750001195,462.9457357999927,463.143253199989,462.945990600012,[],463.03224209998734,463.0322756000096,None,463.0323154999933,463.03233210000326,None,,,,,,,,,,,,,,600683,001,2026-03-30_14h43.13.745,exp_sofc,,2025.2.3,59.6727783479875,2026-03-30 14h43.14.484219 +0200,
,10,10,0,,,,clip_claude_06_nosub_1,clips/clip_claude_06_nosub_1.mp4,audios/clip_claude_06_nosub_1.mp3,claude,nosub,1,6,2840.0,NA,12560,Wie sind die Personen gelaunt?,sie streiten,sie weinen,sie lachen,sie schlafen,,,,None,None,,,,,,,,,,,,,0,10,10,10,463.143253199989,,,,,,,,,,,,,,,,,,,,,,,,,,,,,,,,,,,,,,,,,,,,,,,,clips/clip_hund_14_sub_2.mp4,audios/silence.mp3,visual,463.1371266999922,463.5381972999894,463.73913490000996,463.7388863666604,463.73913490000996,464.9903273000091,473.86731160001364,473.63860519998707,[5.920487199997297],473.74886870000046,473.7489024999959,None,473.74894039999344,473.74897169999895,None,,,,,,,,,,,,,,600683,001,2026-03-30_14h43.13.745,exp_sofc,,2025.2.3,59.6727783479875,2026-03-30 14h43.14.484219 +0200,
,11,11,0,,,,clip_claude_06_sub_1,clips/clip_claude_06_sub_1.mp4,audios/clip_claude_06_sub_1.mp3,claude,sub,1,6,2900.0,NA,12533,Wie sind die Personen gelaunt?,sie streiten,sie weinen,sie lachen,sie schlafen,,,,2,None,3.436145299987402,None,,,,,,,,,,,0,11,11,11,473.86731160001364,,,,,,,,,,,,,,,,,,,,,,,,,,,,,,,,,,,,,,,,,,,,,,,,clips/clip_dampf_05_nosub_2.mp4,audios/clip_dampf_05_nosub_2.mp3,audiovisual,473.8617144000018,474.25509940000484,474.45557779999217,474.45551776668094,474.45557779999217,,483.27906359999906,483.1607711999968,"[3.5710448999889195, 8.66294419998303]",483.2732429000025,486.7247889999999,2,486.72484109998913,486.72485999998753,None,2,483.27906359999906,483.27906359999906,483.27906359999906,3.436145299987402,None,,,,,,,,600683,001,2026-03-30_14h43.13.745,exp_sofc,,2025.2.3,59.6727783479875,2026-03-30 14h43.14.484219 +0200,
,12,12,0,,,,clip_claude_07_nosub_0,clips/clip_claude_07_nosub_0.mp4,audios/clip_claude_07_nosub_0.mp3,claude,nosub,0,7,NA,NA,10000,Was für ein Tier hebt die Frau am Anfang auf?,einen Hund,eine Katze,einen Vogel,ein Kaninchen,,,,None,None,,,,,,,,,,,,,0,12,12,12,486.8387126000016,,,,,,,,,,,,,,,,,,,,,,,,,,,,,,,,,,,,,,,,,,,,,,,,clips/clip_hund_34_nosub_1.mp4,audios/clip_hund_34_nosub_1.mp3,audiovisual,486.83365620000404,487.2391356000153,487.4399631000124,487.4395321666709,487.4399631000124,498.0511610000103,498.0511610000103,497.85575220000464,[],497.94712840000284,497.9471601000114,None,497.94719820001046,497.94721400001436,None,,,,,,,,,,,,,,600683,001,2026-03-30_14h43.13.745,exp_sofc,,2025.2.3,59.6727783479875,2026-03-30 14h43.14.484219 +0200,
,13,13,0,,,,clip_claude_07_sub_0,clips/clip_claude_07_sub_0.mp4,audios/clip_claude_07_sub_0.mp3,claude,sub,0,7,NA,NA,10000,Was für ein Tier hebt die Frau am Anfang auf?,einen Hund,eine Katze,einen Vogel,ein Kaninchen,,,,None,None,,,,,,,,,,,,,0,13,13,13,498.0511610000103,,,,,,,,,,,,,,,,,,,,,,,,,,,,,,,,,,,,,,,,,,,,,,,,clips/clip_herz_02_nosub_0.mp4,audios/silence.mp3,visual,498.04483580001397,498.4483770999941,498.6489997000026,498.64868716666047,498.6489997000026,499.9022122999886,511.2553055000026,511.0513423999946,[9.13576030000695],511.1402334999875,511.1402683999913,None,511.1403083000041,511.1403336999938,None,,,,,,,,,,,,,,600683,001,2026-03-30_14h43.13.745,exp_sofc,,2025.2.3,59.6727783479875,2026-03-30 14h43.14.484219 +0200,
,14,14,0,,,,clip_claude_08_nosub_0,clips/clip_claude_08_nosub_0.mp4,audios/clip_claude_08_nosub_0.mp3,claude,nosub,0,8,NA,NA,9600,Wo findet die Szene statt?,in einer Kirche,in einem Wohnhaus,in einem Restaurant,in einem Büro,,,,None,None,,,,,,,,,,,,,0,14,14,14,511.2553055000026,,,,,,,,,,,,,,,,,,,,,,,,,,,,,,,,,,,,,,,,,,,,,,,,clips/clip_wurst_27_sub_1.mp4,audios/clip_wurst_27_sub_1.mp3,audiovisual,511.25139260001015,511.6441962000099,511.8448311999964,511.84466776665454,511.8448311999964,,522.2611994000035,522.0446155999962,[6.0452052999753505],522.1453328999924,522.1453783999896,None,522.1454475999926,522.1455390999909,None,,,,,,,,,,,,,,600683,001,2026-03-30_14h43.13.745,exp_sofc,,2025.2.3,59.6727783479875,2026-03-30 14h43.14.484219 +0200,
,15,15,0,,,,clip_claude_08_sub_0,clips/clip_claude_08_sub_0.mp4,audios/clip_claude_08_sub_0.mp3,claude,sub,0,8,NA,NA,9600,Wo findet die Szene statt?,in einer Kirche,in einem Wohnhaus,in einem Restaurant,in einem Büro,,,,None,None,,,,,,,,,,,,,0,15,15,15,522.2611994000035,,,,,,,,,,,,,,,,,,,,,,,,,,,,,,,,,,,,,,,,,,,,,,,,clips/clip_claude_20_nosub_1.mp4,audios/silence.mp3,visual,522.2551290999982,522.6607568000036,522.8447097000026,522.8448265666705,522.8614881999965,524.0974481999874,535.0797348000051,534.8645588000072,[6.459574599983171],534.9765779000008,534.9766108999902,None,534.9766473000054,534.9766709000105,None,,,,,,,,,,,,,,600683,001,2026-03-30_14h43.13.745,exp_sofc,,2025.2.3,59.6727783479875,2026-03-30 14h43.14.484219 +0200,
,16,16,0,,,,clip_claude_09_nosub_2,clips/clip_claude_09_nosub_2.mp4,audios/clip_claude_09_nosub_2.mp3,claude,nosub,2,9,2880.0,7600.0,10200,Welches Tier ist am Anfang zu sehen?,ein Hund,eine Katze,ein Vogel,ein Pferd,,,,None,None,,,,,,,,,,,,,0,16,16,16,535.0797348000051,,,,,,,,,,,,,,,,,,,,,,,,,,,,,,,,,,,,,,,,,,,,,,,,clips/clip_claude_12_nosub_0.mp4,audios/silence.mp3,visual,535.0735907999915,535.4797052000067,535.6798115000129,535.6805357666783,535.6798115000129,536.9315677999984,545.1059940000123,544.9117992999963,[],545.0048510000051,545.0048891000042,None,545.0049242000096,545.0049461000017,None,,,,,,,,,,,,,,600683,001,2026-03-30_14h43.13.745,exp_sofc,,2025.2.3,59.6727783479875,2026-03-30 14h43.14.484219 +0200,
,17,17,0,,,,clip_claude_09_sub_2,clips/clip_claude_09_sub_2.mp4,audios/clip_claude_09_sub_2.mp3,claude,sub,2,9,2933.0,7666.0,10200,Welches Tier ist am Anfang zu sehen?,ein Hund,eine Katze,ein Vogel,ein Pferd,,,,None,None,,,,,,,,,,,,,0,17,17,17,545.1059940000123,,,,,,,,,,,,,,,,,,,,,,,,,,,,,,,,,,,,,,,,,,,,,,,,clips/clip_hund_08_nosub_1.mp4,audios/silence.mp3,visual,545.0997639000125,545.5206352999958,545.7211906999873,545.7206647666792,545.7211906999873,546.9720377000049,555.9805135999923,555.7526119000104,[],555.8533087999967,555.8533777999983,None,555.8534426999977,555.8534699000011,None,,,,,,,,,,,,,,600683,001,2026-03-30_14h43.13.745,exp_sofc,,2025.2.3,59.6727783479875,2026-03-30 14h43.14.484219 +0200,
,18,18,0,,,,clip_claude_10_nosub_0,clips/clip_claude_10_nosub_0.mp4,audios/clip_claude_10_nosub_0.mp3,claude,nosub,0,10,NA,NA,11200,Wie viele Personen befinden sich im Fahrzeug?,2,1,3,4,,,,2,None,2.638046799984295,None,,,,,,,,,,,0,18,18,18,555.9805135999923,,,,,,,,,,,,,,,,,,,,,,,,,,,,,,,,,,,,,,,,,,,,,,,,clips/clip_dampf_01_nosub_0.mp4,audios/clip_dampf_01_nosub_0.mp3,audiovisual,555.9751380000089,556.3535865000158,556.5547241999884,556.5544049666826,556.5547241999884,566.0025009000092,566.1104917000048,566.0027151000104,[],566.1034387999971,568.7490945000027,2,568.7491632000019,568.7491897,None,2,566.1104917000048,566.1104917000048,566.1104917000048,2.638046799984295,None,,,,,,,,600683,001,2026-03-30_14h43.13.745,exp_sofc,,2025.2.3,59.6727783479875,2026-03-30 14h43.14.484219 +0200,
,19,19,0,,,,clip_claude_10_sub_0,clips/clip_claude_10_sub_0.mp4,audios/clip_claude_10_sub_0.mp3,claude,sub,0,10,NA,NA,11200,Wie viele Personen befinden sich im Fahrzeug?,2,1,3,4,,,,None,None,,,,,,,,,,,,,0,19,19,19,568.8861835999996,,,,,,,,,,,,,,,,,,,,,,,,,,,,,,,,,,,,,,,,,,,,,,,,clips/clip_wurst_19_sub_0.mp4,audios/clip_wurst_19_sub_0.mp3,audiovisual,568.8803064000094,569.2525463000056,569.4536269000091,569.453180466666,569.4536269000091,580.4884257999947,580.7125617999991,580.4886662999925,[],580.596117100009,580.5961547000043,None,580.5961908999889,580.5962081000034,None,,,,,,,,,,,,,,600683,001,2026-03-30_14h43.13.745,exp_sofc,,2025.2.3,59.6727783479875,2026-03-30 14h43.14.484219 +0200,
,20,20,0,,,,clip_claude_11_nosub_0,clips/clip_claude_11_nosub_0.mp4,audios/clip_claude_11_nosub_0.mp3,claude,nosub,0,11,NA,NA,10000,Wie ist der Mann auf der linken Seite gelaunt?,er ist wütend,er ist entspannt,er ist gerührt,er ist ängstlich,,,,None,None,,,,,,,,,,,,,0,20,20,20,580.7125617999991,,,,,,,,,,,,,,,,,,,,,,,,,,,,,,,,,,,,,,,,,,,,,,,,clips/clip_weißt_06_nosub_0.mp4,audios/silence.mp3,visual,580.7059236000059,581.1051500999893,581.3049840999884,581.3042797666606,581.3049840999884,582.5564606999978,591.8195233000151,591.6216993000126,[5.557839099987177],591.7236022000143,591.7236699000059,None,591.7237138999917,591.7237329999916,None,,,,,,,,,,,,,,600683,001,2026-03-30_14h43.13.745,exp_sofc,,2025.2.3,59.6727783479875,2026-03-30 14h43.14.484219 +0200,
,21,21,0,,,,clip_claude_11_sub_0,clips/clip_claude_11_sub_0.mp4,audios/clip_claude_11_sub_0.mp3,claude,sub,0,11,NA,NA,10000,Wie ist der Mann auf der linken Seite gelaunt?,er ist wütend,er ist entspannt,er ist gerührt,er ist ängstlich,,,,None,None,,,,,,,,,,,,,0,21,21,21,591.8195233000151,,,,,,,,,,,,,,,,,,,,,,,,,,,,,,,,,,,,,,,,,,,,,,,,clips/clip_holo_05_nosub_2.mp4,audios/silence.mp3,visual,591.8133532000065,592.2304106999945,592.4312742000038,592.4306418666713,592.4312742000038,593.6819860000105,601.7800653000013,601.5620148000016,[7.1439910999906715],601.6535842999874,601.6536309999938,None,601.6536694999959,601.6536908000126,None,,,,,,,,,,,,,,600683,001,2026-03-30_14h43.13.745,exp_sofc,,2025.2.3,59.6727783479875,2026-03-30 14h43.14.484219 +0200,
,22,22,0,,,,clip_claude_12_nosub_0,clips/clip_claude_12_nosub_0.mp4,audios/clip_claude_12_nosub_0.mp3,claude,nosub,0,12,NA,NA,9200,Wie viele Kinder sieht man in der Szene?,2,5,3,0,,,,None,None,,,,,,,,,,,,,0,22,22,22,601.7800653000013,,,,,,,,,,,,,,,,,,,,,,,,,,,,,,,,,,,,,,,,,,,,,,,,clips/clip_lied_06_nosub_1.mp4,audios/clip_lied_06_nosub_1.mp3,audiovisual,601.775376000005,602.1626498000114,602.3628430000099,602.3624345666651,602.3628430000099,615.1742032000038,615.1742032000038,614.9828703000094,[],615.0795172000071,615.0795511000033,None,615.0795919999946,615.0796300999937,None,,,,,,,,,,,,,,600683,001,2026-03-30_14h43.13.745,exp_sofc,,2025.2.3,59.6727783479875,2026-03-30 14h43.14.484219 +0200,
,23,23,0,,,,clip_claude_12_sub_0,clips/clip_claude_12_sub_0.mp4,audios/clip_claude_12_sub_0.mp3,claude,sub,1,12,8333.0,NA,9200,Wie viele Kinder sieht man in der Szene?,2,5,3,0,,,,None,None,,,,,,,,,,,,,0,23,23,23,615.1742032000038,,,,,,,,,,,,,,,,,,,,,,,,,,,,,,,,,,,,,,,,,,,,,,,,clips/clip_hund_35_sub_0.mp4,audios/silence.mp3,visual,615.1683404000069,615.5905992999906,615.791550199996,615.7912711666761,615.791550199996,617.044415100012,626.4326437000127,626.2242073999951,[],626.3162021999888,626.3162607999984,None,626.316338900011,626.3163651000068,None,,,,,,,,,,,,,,600683,001,2026-03-30_14h43.13.745,exp_sofc,,2025.2.3,59.6727783479875,2026-03-30 14h43.14.484219 +0200,
,24,24,0,,,,clip_claude_13_nosub_0,clips/clip_claude_13_nosub_0.mp4,audios/clip_claude_13_nosub_0.mp3,claude,nosub,0,13,NA,NA,9200,Welche Farbe hat der Anzug des Mannes?,schwarz,grün,rot,gelb,,,,None,None,,,,,,,,,,,,,0,24,24,24,626.4326437000127,,,,,,,,,,,,,,,,,,,,,,,,,,,,,,,,,,,,,,,,,,,,,,,,clips/clip_wurst_35_sub_0.mp4,audios/clip_wurst_35_sub_0.mp3,audiovisual,626.4270209000097,626.8163858999906,627.0170060000091,627.0167006666636,627.0170060000091,,636.5390774999978,636.3192145999928,[],636.4139818999975,636.4140376000141,None,636.4140837000159,636.4141058000096,None,,,,,,,,,,,,,,600683,001,2026-03-30_14h43.13.745,exp_sofc,,2025.2.3,59.6727783479875,2026-03-30 14h43.14.484219 +0200,
,25,25,0,,,,clip_claude_13_sub_0,clips/clip_claude_13_sub_0.mp4,audios/clip_claude_13_sub_0.mp3,claude,sub,0,13,NA,NA,9200,Welche Farbe hat der Anzug des Mannes?,schwarz,grün,rot,gelb,,,,None,None,,,,,,,,,,,,,0,25,25,25,636.5390774999978,,,,,,,,,,,,,,,,,,,,,,,,,,,,,,,,,,,,,,,,,,,,,,,,clips/clip_claude_05_nosub_2.mp4,audios/clip_claude_05_nosub_2.mp3,audiovisual,636.5326034000027,636.9156688000076,637.1178070000024,637.1157944666668,637.1178070000024,,648.5997658999986,648.4173681999964,[4.679816999996547],648.5066181000147,648.5066532999917,None,648.5067352000042,648.5067639999907,None,,,,,,,,,,,,,,600683,001,2026-03-30_14h43.13.745,exp_sofc,,2025.2.3,59.6727783479875,2026-03-30 14h43.14.484219 +0200,
,26,26,0,,,,clip_claude_14_nosub_0,clips/clip_claude_14_nosub_0.mp4,audios/clip_claude_14_nosub_0.mp3,claude,nosub,2,14,1900.0,7620.0,11080,Was passiert in der Szene?,ein Mann steht auf,ein Mann setzt sich hin,eine Frau steht auf,eine Frau weint,,,,None,None,,,,,,,,,,,,,0,26,26,26,648.5997658999986,,,,,,,,,,,,,,,,,,,,,,,,,,,,,,,,,,,,,,,,,,,,,,,,clips/clip_weißt_11_sub_0.mp4,audios/silence.mp3,visual,648.5937798999948,649.0176138000097,649.2189204999886,649.2181747666657,649.2189204999886,650.4701705999905,659.4527260999894,659.2504426999949,[],659.3537905999983,659.3538414000068,None,659.3538906000031,659.3539146000112,None,,,,,,,,,,,,,,600683,001,2026-03-30_14h43.13.745,exp_sofc,,2025.2.3,59.6727783479875,2026-03-30 14h43.14.484219 +0200,
,27,27,0,,,,clip_claude_14_sub_0,clips/clip_claude_14_sub_0.mp4,audios/clip_claude_14_sub_0.mp3,claude,sub,2,14,1966.0,7666.0,11067,Was passiert in der Szene?,ein Mann steht auf,ein Mann setzt sich hin,eine Frau steht auf,eine Frau weint,,,,None,None,,,,,,,,,,,,,0,27,27,27,659.4527260999894,,,,,,,,,,,,,,,,,,,,,,,,,,,,,,,,,,,,,,,,,,,,,,,,clips/clip_claude_14_sub_0.mp4,audios/silence.mp3,visual,659.4466469000035,659.8595103000116,660.0605314999993,660.0597974666782,660.0605314999993,661.3119828999916,671.3410145000089,671.1455064000038,"[3.168121099995915, 8.959651899989694]",671.23454949999,671.2346010000037,None,671.2346428000019,671.2346628000087,None,,,,,,,,,,,,,,600683,001,2026-03-30_14h43.13.745,exp_sofc,,2025.2.3,59.6727783479875,2026-03-30 14h43.14.484219 +0200,
,28,28,0,,,,clip_claude_15_nosub_0,clips/clip_claude_15_nosub_0.mp4,audios/clip_claude_15_nosub_0.mp3,claude,nosub,0,15,NA,NA,12000,Wo läuft die Gruppe?,in einer Kirche,in einem Schloss,in einem Fast-Food-Lokal,in einem Park,,,,None,None,,,,,,,,,,,,,0,28,28,28,671.3410145000089,,,,,,,,,,,,,,,,,,,,,,,,,,,,,,,,,,,,,,,,,,,,,,,,clips/clip_herz_04_sub_0.mp4,audios/silence.mp3,visual,671.3321433000092,671.7371419999981,671.9374657000008,671.9370532666546,671.9374657000008,673.1900766000035,683.1291816000012,682.9541032999987,[7.979256799997529],683.0336762999941,683.033729399991,None,683.0337996000017,683.0338257999974,None,,,,,,,,,,,,,,600683,001,2026-03-30_14h43.13.745,exp_sofc,,2025.2.3,59.6727783479875,2026-03-30 14h43.14.484219 +0200,
,29,29,0,,,,clip_claude_15_sub_0,clips/clip_claude_15_sub_0.mp4,audios/clip_claude_15_sub_0.mp3,claude,sub,0,15,NA,NA,12000,Wo läuft die Gruppe?,in einer Kirche,in einem Schloss,in einem Fast-Food-Lokal,in einem Park,,,,None,None,,,,,,,,,,,,,0,29,29,29,683.1291816000012,,,,,,,,,,,,,,,,,,,,,,,,,,,,,,,,,,,,,,,,,,,,,,,,clips/clip_holo_17_nosub_0.mp4,audios/silence.mp3,visual,683.1233795000007,683.5382203999907,683.7400820000039,683.7395088666565,683.7400820000039,684.9905236999912,693.7713154999947,693.5705593999883,[],693.6723861999926,693.6724403999979,None,693.6725151000137,693.6725451000093,None,,,,,,,,,,,,,,600683,001,2026-03-30_14h43.13.745,exp_sofc,,2025.2.3,59.6727783479875,2026-03-30 14h43.14.484219 +0200,
,30,30,0,,,,clip_claude_16_nosub_1,clips/clip_claude_16_nosub_1.mp4,audios/clip_claude_16_nosub_1.mp3,claude,nosub,1,16,7780.0,NA,11180,Was hat der Mann in der Hand?,einen Blumenstrauß,eine Waffe,ein Geschenk,ein Buch,,,,1,None,2.739160199998878,None,,,,,,,,,,,0,30,30,30,693.7713154999947,,,,,,,,,,,,,,,,,,,,,,,,,,,,,,,,,,,,,,,,,,,,,,,,clips/clip_claude_18_sub_0.mp4,audios/silence.mp3,visual,693.7653404000157,694.1798746999993,694.3815807999927,694.3810050666546,694.3815807999927,695.6320521000016,703.5241787999985,703.4111625000078,[],703.5183111999941,706.2794349000033,1,706.2795015000156,706.2795260999992,None,1,703.5241787999985,703.5241787999985,703.5241787999985,2.739160199998878,None,,,,,,,,600683,001,2026-03-30_14h43.13.745,exp_sofc,,2025.2.3,59.6727783479875,2026-03-30 14h43.14.484219 +0200,
,31,31,0,,,,clip_claude_16_sub_1,clips/clip_claude_16_sub_1.mp4,audios/clip_claude_16_sub_1.mp3,claude,sub,1,16,7833.0,NA,11167,Was hat der Mann in der Hand?,einen Blumenstrauß,eine Waffe,ein Geschenk,ein Buch,,,,2,None,2.5799900999991223,None,,,,,,,,,,,0,31,31,31,706.3781005000055,,,,,,,,,,,,,,,,,,,,,,,,,,,,,,,,,,,,,,,,,,,,,,,,clips/clip_claude_04_nosub_2.mp4,audios/silence.mp3,visual,706.3727377000032,706.7878217000107,706.9884815000114,706.9880920666658,706.9884815000114,708.2399218000064,716.1379300999979,716.019638400001,[8.51214199999231],716.1315680000116,718.7243503000063,2,718.7244256999984,718.7244464000105,None,2,716.1379300999979,716.1379300999979,716.1379300999979,2.5799900999991223,None,,,,,,,,600683,001,2026-03-30_14h43.13.745,exp_sofc,,2025.2.3,59.6727783479875,2026-03-30 14h43.14.484219 +0200,
,32,32,0,,,,clip_claude_17_nosub_1,clips/clip_claude_17_nosub_1.mp4,audios/clip_claude_17_nosub_1.mp3,claude,nosub,1,17,9220.0,NA,11500,Wo befinden sich die Personen?,im Bett,im Auto,im Wohnzimmer,in der Küche,,,,None,None,,,,,,,,,,,,,0,32,32,32,718.839247099997,,,,,,,,,,,,,,,,,,,,,,,,,,,,,,,,,,,,,,,,,,,,,,,,clips/clip_holo_14_nosub_0.mp4,audios/clip_holo_14_nosub_0.mp3,audiovisual,718.8326658000005,719.2392988000065,719.4401114000066,719.4396103666552,719.4401114000066,729.4722368000075,729.6659982000128,729.4724809000036,[],729.5636570999923,729.5636907000153,None,729.5637213999871,729.5637409999908,None,,,,,,,,,,,,,,600683,001,2026-03-30_14h43.13.745,exp_sofc,,2025.2.3,59.6727783479875,2026-03-30 14h43.14.484219 +0200,
,33,33,0,,,,clip_claude_17_sub_1,clips/clip_claude_17_sub_1.mp4,audios/clip_claude_17_sub_1.mp3,claude,sub,1,17,9266.0,NA,11500,Wo befinden sich die Personen?,im Bett,im Auto,im Wohnzimmer,in der Küche,,,,None,None,,,,,,,,,,,,,0,33,33,33,729.6659982000128,,,,,,,,,,,,,,,,,,,,,,,,,,,,,,,,,,,,,,,,,,,,,,,,clips/clip_weißt_17_nosub_0.mp4,audios/silence.mp3,visual,729.6598578999983,730.0641170000017,730.2646336999896,730.2644804666672,730.2646336999896,731.517108400003,741.996278000006,741.782326799992,[],741.8764147000038,741.8764501000114,None,741.876494600001,741.8765364999999,None,,,,,,,,,,,,,,600683,001,2026-03-30_14h43.13.745,exp_sofc,,2025.2.3,59.6727783479875,2026-03-30 14h43.14.484219 +0200,
,34,34,0,,,,clip_claude_18_nosub_0,clips/clip_claude_18_nosub_0.mp4,audios/clip_claude_18_nosub_0.mp3,claude,nosub,0,18,NA,NA,9000,Wie sind die Personen angezogen?,schick im Anzug,leger,in Jogginghose,in Arbeitskleidung,,,,None,None,,,,,,,,,,,,,0,34,34,34,741.996278000006,,,,,,,,,,,,,,,,,,,,,,,,,,,,,,,,,,,,,,,,,,,,,,,,clips/clip_claude_13_nosub_0.mp4,audios/clip_claude_13_nosub_0.mp3,audiovisual,741.9900304999901,742.3799911999959,742.5802969000069,742.5802450666708,742.5802969000069,751.8117069000145,752.016959200002,751.8119013000105,[],751.9110155999952,751.9110466999991,None,751.9110817000037,751.9110985000152,None,,,,,,,,,,,,,,600683,001,2026-03-30_14h43.13.745,exp_sofc,,2025.2.3,59.6727783479875,2026-03-30 14h43.14.484219 +0200,
,35,35,0,,,,clip_claude_18_sub_0,clips/clip_claude_18_sub_0.mp4,audios/clip_claude_18_sub_0.mp3,claude,sub,0,18,NA,NA,9000,Wie sind die Personen angezogen?,schick im Anzug,leger,in Jogginghose,in Arbeitskleidung,,,,None,None,,,,,,,,,,,,,0,35,35,35,752.016959200002,,,,,,,,,,,,,,,,,,,,,,,,,,,,,,,,,,,,,,,,,,,,,,,,clips/clip_hund_15_sub_1.mp4,audios/clip_hund_15_sub_1.mp3,audiovisual,752.0111016000155,752.4203104999906,752.6211279999989,752.6208056666694,752.6211279999989,763.0863955999957,763.2716872000019,763.0865205000155,[4.739937299978919],763.1704616000061,763.1704968000122,None,763.1705359999905,763.170555299992,None,,,,,,,,,,,,,,600683,001,2026-03-30_14h43.13.745,exp_sofc,,2025.2.3,59.6727783479875,2026-03-30 14h43.14.484219 +0200,
,36,36,0,,,,clip_claude_19_nosub_0,clips/clip_claude_19_nosub_0.mp4,audios/clip_claude_19_nosub_0.mp3,claude,nosub,0,19,NA,NA,10400,Wie ist das Restaurant?,teuer,billig,ein Imbiss,ein Fast-Food-Lokal,,,,None,None,,,,,,,,,,,,,0,36,36,36,763.2716872000019,,,,,,,,,,,,,,,,,,,,,,,,,,,,,,,,,,,,,,,,,,,,,,,,clips/clip_weißt_23_nosub_1.mp4,audios/silence.mp3,visual,763.2657261000131,763.6714614999946,763.8718431000016,763.8717116666705,763.8718431000016,765.1237191999971,775.4899478000007,775.290385100001,[8.28686480000033],775.3814649000124,775.3815115999896,None,775.3815456999873,775.3815618999943,None,,,,,,,,,,,,,,600683,001,2026-03-30_14h43.13.745,exp_sofc,,2025.2.3,59.6727783479875,2026-03-30 14h43.14.484219 +0200,
,37,37,0,,,,clip_claude_19_sub_0,clips/clip_claude_19_sub_0.mp4,audios/clip_claude_19_sub_0.mp3,claude,sub,0,19,NA,NA,10400,Wie ist das Restaurant?,teuer,billig,ein Imbiss,ein Fast-Food-Lokal,,,,None,None,,,,,,,,,,,,,0,37,37,37,775.4899478000007,,,,,,,,,,,,,,,,,,,,,,,,,,,,,,,,,,,,,,,,,,,,,,,,clips/clip_herz_10_nosub_0.mp4,audios/silence.mp3,visual,775.4836516999931,775.8821588999999,776.0835062999977,776.0829163666679,776.0835062999977,777.3346089000115,786.3166756000137,786.1148864999996,[],786.2191081999918,786.2192015000037,None,786.2192544999998,786.2192752000119,None,,,,,,,,,,,,,,600683,001,2026-03-30_14h43.13.745,exp_sofc,,2025.2.3,59.6727783479875,2026-03-30 14h43.14.484219 +0200,
,38,38,0,,,,clip_claude_20_nosub_1,clips/clip_claude_20_nosub_1.mp4,audios/clip_claude_20_nosub_1.mp3,claude,nosub,1,20,5360.0,NA,12000,Was macht der Mann?,angeln,beten,weinen,schlafen,,,,None,None,,,,,,,,,,,,,0,38,38,38,786.3166756000137,,,,,,,,,,,,,,,,,,,,,,,,,,,,,,,,,,,,,,,,,,,,,,,,clips/clip_hund_24_nosub_1.mp4,audios/silence.mp3,visual,786.3111978000088,786.7241274999978,786.9245248000079,786.9241783666696,786.9245248000079,788.176080300007,799.1420263999898,798.9432405999978,"[0.42271710000932217, 8.201443400001153]",799.0448919000046,799.0449631999945,None,799.0450131999969,799.045031000016,None,,,,,,,,,,,,,,600683,001,2026-03-30_14h43.13.745,exp_sofc,,2025.2.3,59.6727783479875,2026-03-30 14h43.14.484219 +0200,
,39,39,0,,,,clip_claude_20_sub_1,clips/clip_claude_20_sub_1.mp4,audios/clip_claude_20_sub_1.mp3,claude,sub,1,20,5400.0,NA,12000,Was macht der Mann?,angeln,beten,weinen,schlafen,,,,None,None,,,,,,,,,,,,,0,39,39,39,799.1420263999898,,,,,,,,,,,,,,,,,,,,,,,,,,,,,,,,,,,,,,,,,,,,,,,,clips/clip_herz_08_sub_0.mp4,audios/silence.mp3,visual,799.1358287000039,799.552533900016,799.7529100000102,799.7526926666653,799.7529100000102,801.0044250999927,811.9702045000158,811.771584800008,[5.273078900005203],811.8582570000144,811.8582890999969,None,811.8583223999885,811.8583451999875,None,,,,,,,,,,,,,,600683,001,2026-03-30_14h43.13.745,exp_sofc,,2025.2.3,59.6727783479875,2026-03-30 14h43.14.484219 +0200,
,40,40,0,,,,clip_claude_21_nosub_1,clips/clip_claude_21_nosub_1.mp4,audios/clip_claude_21_nosub_1.mp3,claude,nosub,1,21,8560.0,NA,12240,Worauf sitzen die Männer?,auf einer Couch,auf Stühlen,auf einem Bett,auf dem Boden,,,,None,None,,,,,,,,,,,,,0,40,40,40,811.9702045000158,,,,,,,,,,,,,,,,,,,,,,,,,,,,,,,,,,,,,,,,,,,,,,,,clips/clip_wurst_17_nosub_0.mp4,audios/clip_wurst_17_nosub_0.mp3,audiovisual,811.9647930999927,812.3637675000064,812.5648387999972,812.5643208666627,812.5648387999972,820.5939073000045,820.7735458000097,820.5940974999976,[],820.6834085999872,820.6834470999893,None,820.6835347999877,820.6835677000054,None,,,,,,,,,,,,,,600683,001,2026-03-30_14h43.13.745,exp_sofc,,2025.2.3,59.6727783479875,2026-03-30 14h43.14.484219 +0200,
,41,41,0,,,,clip_claude_21_sub_1,clips/clip_claude_21_sub_1.mp4,audios/clip_claude_21_sub_1.mp3,claude,sub,1,21,8633.0,NA,12233,Worauf sitzen die Männer?,auf einer Couch,auf Stühlen,auf einem Bett,auf dem Boden,,,,None,None,,,,,,,,,,,,,0,41,41,41,820.7735458000097,,,,,,,,,,,,,,,,,,,,,,,,,,,,,,,,,,,,,,,,,,,,,,,,clips/clip_holo_28_sub_0.mp4,audios/silence.mp3,visual,820.7677665000083,821.194270500011,821.3953062999935,821.3946571666786,821.3953062999935,822.6466578000109,830.1094526000088,829.9246281000087,[],830.0139001999923,830.0139969000011,None,830.0140523999871,830.0140712000139,None,,,,,,,,,,,,,,600683,001,2026-03-30_14h43.13.745,exp_sofc,,2025.2.3,59.6727783479875,2026-03-30 14h43.14.484219 +0200,
,42,42,0,,,,clip_claude_22_nosub_2,clips/clip_claude_22_nosub_2.mp4,audios/clip_claude_22_nosub_2.mp3,claude,nosub,1,22,6860.0,NA,10720,Wo sitzen die Männer?,in einem Theaterpublikum,in einem Stadion,in einer Vorlesung,im Kino,,,,None,None,,,,,,,,,,,,,0,42,42,42,830.1094526000088,,,,,,,,,,,,,,,,,,,,,,,,,,,,,,,,,,,,,,,,,,,,,,,,clips/clip_lied_03_sub_1.mp4,audios/silence.mp3,visual,830.1042888000084,830.5265782999923,830.7274769000069,830.7270102666555,830.7274769000069,831.9790072999895,841.4584977999912,841.2444817000069,[4.548932500008959],841.3442646999902,841.3443291000149,None,841.3443807000003,841.3444066999946,None,,,,,,,,,,,,,,600683,001,2026-03-30_14h43.13.745,exp_sofc,,2025.2.3,59.6727783479875,2026-03-30 14h43.14.484219 +0200,
,43,43,0,,,,clip_claude_22_sub_2,clips/clip_claude_22_sub_2.mp4,audios/clip_claude_22_sub_2.mp3,claude,sub,1,22,6933.0,NA,10733,Wo sitzen die Männer?,in einem Theaterpublikum,in einem Stadion,in einer Vorlesung,im Kino,,,,None,None,,,,,,,,,,,,,0,43,43,43,841.4584977999912,,,,,,,,,,,,,,,,,,,,,,,,,,,,,,,,,,,,,,,,,,,,,,,,clips/clip_hund_27_nosub_1.mp4,audios/clip_hund_27_nosub_1.mp3,audiovisual,841.4546955999976,841.8431516000128,842.0604114999878,842.0598437666815,842.0431771000149,852.2757105999917,852.4651591000147,852.2758855000138,[4.8994831000163686],852.3720707999892,852.3721050999884,None,852.3721409999998,852.3721609000058,None,,,,,,,,,,,,,,600683,001,2026-03-30_14h43.13.745,exp_sofc,,2025.2.3,59.6727783479875,2026-03-30 14h43.14.484219 +0200,
,44,44,0,,,,clip_claude_23_nosub_0,clips/clip_claude_23_nosub_0.mp4,audios/clip_claude_23_nosub_0.mp3,claude,nosub,0,23,NA,NA,12120,Wo liegt die Frau?,auf einer Sonnenbank,in einem Liegesessel,auf der Autorückbank,auf einer Wiese,,,,None,None,,,,,,,,,,,,,0,44,44,44,852.4651591000147,,,,,,,,,,,,,,,,,,,,,,,,,,,,,,,,,,,,,,,,,,,,,,,,clips/clip_weißt_30_sub_2.mp4,audios/silence.mp3,visual,852.459088100004,852.8816373999871,853.0825487000111,853.0820513666588,853.0825487000111,854.3338371000136,865.3091196999885,865.100666000013,"[3.400310700002592, 11.954384799988475]",865.193153900007,865.1931903999939,None,865.1932271000114,865.19326,None,,,,,,,,,,,,,,600683,001,2026-03-30_14h43.13.745,exp_sofc,,2025.2.3,59.6727783479875,2026-03-30 14h43.14.484219 +0200,
,45,45,0,,,,clip_claude_23_sub_0,clips/clip_claude_23_sub_0.mp4,audios/clip_claude_23_sub_0.mp3,claude,sub,0,23,NA,NA,12133,Wo liegt die Frau?,auf einer Sonnenbank,in einem Liegesessel,auf der Autorückbank,auf einer Wiese,,,,None,None,,,,,,,,,,,,,0,45,45,45,865.3091196999885,,,,,,,,,,,,,,,,,,,,,,,,,,,,,,,,,,,,,,,,,,,,,,,,clips/clip_wurst_08_nosub_1.mp4,audios/clip_wurst_08_nosub_1.mp3,audiovisual,865.3049113999878,865.6937937999901,865.8946474000113,865.893900966654,865.8946474000113,874.4243011999934,874.602955600014,874.4245082999987,[5.348658799979603],874.5079053000081,874.507941399992,None,874.5079802999971,874.508012700011,None,,,,,,,,,,,,,,600683,001,2026-03-30_14h43.13.745,exp_sofc,,2025.2.3,59.6727783479875,2026-03-30 14h43.14.484219 +0200,
,46,46,0,,,,clip_claude_24_nosub_1,clips/clip_claude_24_nosub_1.mp4,audios/clip_claude_24_nosub_1.mp3,claude,nosub,1,24,4800.0,NA,6180,Welches Fahrzeug fährt der Mann?,Mofa,Geländewagen,Traktor,Fahrrad,,,,None,None,,,,,,,,,,,,,0,46,46,46,874.602955600014,,,,,,,,,,,,,,,,,,,,,,,,,,,,,,,,,,,,,,,,,,,,,,,,clips/clip_holo_19_sub_1.mp4,audios/silence.mp3,visual,874.5949719999917,875.0081490000011,875.2081712000072,875.207872766656,875.2081712000072,876.4607138000138,885.4371576000121,885.2413139000128,[6.679982000001473],885.3435353999957,885.3436215000111,None,885.3436939000094,885.3437213000143,None,,,,,,,,,,,,,,600683,001,2026-03-30_14h43.13.745,exp_sofc,,2025.2.3,59.6727783479875,2026-03-30 14h43.14.484219 +0200,
,47,47,0,,,,clip_claude_24_sub_1,clips/clip_claude_24_sub_1.mp4,audios/clip_claude_24_sub_1.mp3,claude,sub,1,24,4866.0,NA,6167,Welches Fahrzeug fährt der Mann?,Mofa,Geländewagen,Traktor,Fahrrad,,,,None,None,,,,,,,,,,,,,0,47,47,47,885.4371576000121,,,,,,,,,,,,,,,,,,,,,,,,,,,,,,,,,,,,,,,,,,,,,,,,clips/clip_wurst_16_nosub_0.mp4,audios/silence.mp3,visual,885.4312269999937,885.8496978000039,886.050076399988,886.0499375666589,886.050076399988,887.3025455999887,896.2969872000103,896.0825881999917,[],896.184755299997,896.1847961999883,None,896.1848783000023,896.1849077999941,None,,,,,,,,,,,,,,600683,001,2026-03-30_14h43.13.745,exp_sofc,,2025.2.3,59.6727783479875,2026-03-30 14h43.14.484219 +0200,
,48,48,0,,,,clip_claude_25_nosub_0,clips/clip_claude_25_nosub_0.mp4,audios/clip_claude_25_nosub_0.mp3,claude,nosub,0,25,NA,NA,10180,Was lesen die Personen?,eine Zeitschrift,ein Buch,einen Brief,eine Zeitung,,,,1,None,4.1042136999894865,None,,,,,,,,,,,0,48,48,48,896.2969872000103,,,,,,,,,,,,,,,,,,,,,,,,,,,,,,,,,,,,,,,,,,,,,,,,clips/clip_claude_25_nosub_0.mp4,audios/clip_claude_25_nosub_0.mp3,audiovisual,896.2909419999924,896.697187599988,896.8986661999952,896.8982078666779,896.8986661999952,,907.2123117000156,907.0981747999904,[],907.2059524999931,911.3190174000047,1,911.3190840999887,911.3191106999875,None,1,907.2123117000156,907.2123117000156,907.2123117000156,4.1042136999894865,None,,,,,,,,600683,001,2026-03-30_14h43.13.745,exp_sofc,,2025.2.3,59.6727783479875,2026-03-30 14h43.14.484219 +0200,
,49,49,0,,,,clip_claude_25_sub_0,clips/clip_claude_25_sub_0.mp4,audios/clip_claude_25_sub_0.mp3,claude,sub,0,25,NA,NA,10167,Was lesen die Personen?,eine Zeitschrift,ein Buch,einen Brief,eine Zeitung,,,,None,None,,,,,,,,,,,,,0,49,49,49,911.4291636999988,,,,,,,,,,,,,,,,,,,,,,,,,,,,,,,,,,,,,,,,,,,,,,,,clips/clip_weißt_01_nosub_1.mp4,audios/clip_weißt_01_nosub_1.mp3,audiovisual,911.4248350000125,911.8313497999916,912.031238399999,912.0306039666796,912.031238399999,923.2585586000059,923.2585586000059,923.049502400012,"[6.439442200004123, 11.043253699986963]",923.134770100005,923.134799899999,None,923.1348293999908,923.1348446999909,None,,,,,,,,,,,,,,600683,001,2026-03-30_14h43.13.745,exp_sofc,,2025.2.3,59.6727783479875,2026-03-30 14h43.14.484219 +0200,
,50,50,0,,,,clip_claude_26_nosub_0,clips/clip_claude_26_nosub_0.mp4,audios/clip_claude_26_nosub_0.mp3,claude,nosub,1,26,2960.0,NA,10900,Wo befinden sich die Personen?,in einer Kirche,im Supermarkt,am Strand,im Wald,,,,None,None,,,,,,,,,,,,,0,50,50,50,923.2585586000059,,,,,,,,,,,,,,,,,,,,,,,,,,,,,,,,,,,,,,,,,,,,,,,,clips/clip_claude_03_sub_1.mp4,audios/clip_claude_03_sub_1.mp3,audiovisual,923.2523598000116,923.6414082999981,923.8420912000001,923.8418259666689,923.8420912000001,935.5745517000032,935.5745517000032,935.3602930000052,[5.320537999999942],935.4551588000031,935.4552063999872,None,935.4553073999996,935.455338300002,None,,,,,,,,,,,,,,600683,001,2026-03-30_14h43.13.745,exp_sofc,,2025.2.3,59.6727783479875,2026-03-30 14h43.14.484219 +0200,
,51,51,0,,,,clip_claude_26_sub_0,clips/clip_claude_26_sub_0.mp4,audios/clip_claude_26_sub_0.mp3,claude,sub,1,26,3000.0,NA,10900,Wo befinden sich die Personen?,in einer Kirche,im Supermarkt,am Strand,im Wald,,,,1,None,2.6664460000174586,None,,,,,,,,,,,0,51,51,51,935.5745517000032,,,,,,,,,,,,,,,,,,,,,,,,,,,,,,,,,,,,,,,,,,,,,,,,clips/clip_weißt_22_sub_0.mp4,audios/clip_weißt_22_sub_0.mp3,audiovisual,935.5694756000012,935.958040700003,936.1599175000156,936.1578872666616,936.1599175000156,,947.3637811999943,947.2611439999891,[],947.3582786000043,950.0469471999968,1,950.0470113999909,950.0470366000081,None,1,947.3637811999943,947.3637811999943,947.3637811999943,2.6664460000174586,None,,,,,,,,600683,001,2026-03-30_14h43.13.745,exp_sofc,,2025.2.3,59.6727783479875,2026-03-30 14h43.14.484219 +0200,
,52,52,0,,,,clip_claude_27_nosub_0,clips/clip_claude_27_nosub_0.mp4,audios/clip_claude_27_nosub_0.mp3,claude,nosub,0,27,NA,NA,12000,Wie viele Personen waren im Bild?,4,3,2,1,,,,None,None,,,,,,,,,,,,,0,52,52,52,950.1638468999881,,,,,,,,,,,,,,,,,,,,,,,,,,,,,,,,,,,,,,,,,,,,,,,,clips/clip_wurst_25_nosub_1.mp4,audios/clip_wurst_25_nosub_1.mp3,audiovisual,950.1592344999954,950.5472089000104,950.7481428000028,950.7473581666748,950.7481428000028,961.9646994000068,962.1495427000045,961.9649026000116,[],962.0624516000098,962.0624835999915,None,962.0625155000016,962.0625312000047,None,,,,,,,,,,,,,,600683,001,2026-03-30_14h43.13.745,exp_sofc,,2025.2.3,59.6727783479875,2026-03-30 14h43.14.484219 +0200,
,53,53,0,,,,clip_claude_27_sub_0,clips/clip_claude_27_sub_0.mp4,audios/clip_claude_27_sub_0.mp3,claude,sub,0,27,NA,NA,12000,Wie viele Personen waren im Bild?,4,3,2,1,,,,None,None,,,,,,,,,,,,,0,53,53,53,962.1495427000045,,,,,,,,,,,,,,,,,,,,,,,,,,,,,,,,,,,,,,,,,,,,,,,,clips/clip_holo_03_sub_1.mp4,audios/silence.mp3,visual,962.1434746999876,962.5667126000044,962.7673117000086,962.7667163666667,962.7673117000086,964.0193126999948,972.5026184000017,972.2978909999947,[7.43385249999119],972.3879237000074,972.387983099994,None,972.3880512999895,972.3880809000111,None,,,,,,,,,,,,,,600683,001,2026-03-30_14h43.13.745,exp_sofc,,2025.2.3,59.6727783479875,2026-03-30 14h43.14.484219 +0200,
,54,54,0,,,,clip_claude_29_nosub_0,clips/clip_claude_29_nosub_0.mp4,audios/clip_claude_29_nosub_0.mp3,claude,nosub,0,29,NA,NA,10000,Was machen die Männer?,sie weigern sich einzusteigen,sie sind kooperativ,sie rennen weg,sie flüstern,,,,1,None,3.5531317999993917,None,,,,,,,,,,,0,54,54,54,972.5026184000017,,,,,,,,,,,,,,,,,,,,,,,,,,,,,,,,,,,,,,,,,,,,,,,,clips/clip_herz_05_sub_0.mp4,audios/clip_herz_05_sub_0.mp3,audiovisual,972.4981205000076,972.8903350000037,973.0914535000047,973.0911563666634,973.0914535000047,,983.5052069000085,983.390802000009,"[5.945899100013776, 7.438341700006276]",983.5005562000151,987.0617607999884,1,987.061830199993,987.061855500011,None,1,983.5052069000085,983.5052069000085,983.5052069000085,3.5531317999993917,None,,,,,,,,600683,001,2026-03-30_14h43.13.745,exp_sofc,,2025.2.3,59.6727783479875,2026-03-30 14h43.14.484219 +0200,
,55,55,0,,,,clip_claude_29_sub_0,clips/clip_claude_29_sub_0.mp4,audios/clip_claude_29_sub_0.mp3,claude,sub,0,29,NA,NA,10000,Was machen die Männer?,sie weigern sich einzusteigen,sie sind kooperativ,sie rennen weg,sie flüstern,,,,None,None,,,,,,,,,,,,,0,55,55,55,987.1547542999906,,,,,,,,,,,,,,,,,,,,,,,,,,,,,,,,,,,,,,,,,,,,,,,,clips/clip_lied_09_nosub_1.mp4,audios/silence.mp3,visual,987.1487407000095,987.5710140999872,987.7712906000088,987.7711849666705,987.7712906000088,989.0237276999978,998.3891212999879,998.2036820999929,[],998.2917310000048,998.2917941999913,None,998.2918277000135,998.2918437999906,None,,,,,,,,,,,,,,600683,001,2026-03-30_14h43.13.745,exp_sofc,,2025.2.3,59.6727783479875,2026-03-30 14h43.14.484219 +0200,
,56,56,0,,,,clip_dampf_01_nosub_0,clips/clip_dampf_01_nosub_0.mp4,audios/clip_dampf_01_nosub_0.mp3,dampf,nosub,0,1,NA,NA,9420,In welches Fortbewegungsmittel steigt der Mann?,ein Auto,ein Bus,ein Flugzeug,ein Schiff,,,,None,None,,,,,,,,,,,,,0,56,56,56,998.3891212999879,,,,,,,,,,,,,,,,,,,,,,,,,,,,,,,,,,,,,,,,,,,,,,,,clips/clip_weißt_26_sub_1.mp4,audios/silence.mp3,visual,998.3831980999967,998.8055767999904,999.0060692999978,999.0071966666767,999.0060692999978,1000.2581405999954,1009.4536240999878,1009.2386560000014,"[2.0341229000187013, 7.289440199994715]",1009.3466227999888,1009.3466859000036,None,1009.3467696000007,1009.346801000007,None,,,,,,,,,,,,,,600683,001,2026-03-30_14h43.13.745,exp_sofc,,2025.2.3,59.6727783479875,2026-03-30 14h43.14.484219 +0200,
,57,57,0,,,,clip_dampf_01_sub_0,clips/clip_dampf_01_sub_0.mp4,audios/clip_dampf_01_sub_0.mp3,dampf,sub,0,1,NA,NA,9400,In welches Fortbewegungsmittel steigt der Mann?,ein Auto,ein Bus,ein Flugzeug,ein Schiff,,,,None,None,,,,,,,,,,,,,0,57,57,57,1009.4536240999878,,,,,,,,,,,,,,,,,,,,,,,,,,,,,,,,,,,,,,,,,,,,,,,,clips/clip_hund_18_sub_1.mp4,audios/silence.mp3,visual,1009.4475242999906,1009.8540780000039,1010.055557100015,1010.0550053666559,1010.055557100015,1011.305457999988,1020.2803940000013,1020.0862459999917,[6.970034300000407],1020.1858874000027,1020.1859209999966,None,1020.1859572000103,1020.1859750000003,None,,,,,,,,,,,,,,600683,001,2026-03-30_14h43.13.745,exp_sofc,,2025.2.3,59.6727783479875,2026-03-30 14h43.14.484219 +0200,
,58,58,0,,,,clip_dampf_02_nosub_1,clips/clip_dampf_02_nosub_1.mp4,audios/clip_dampf_02_nosub_1.mp3,dampf,nosub,1,2,3740.0,NA,9300,Was trägt der Mann?,Socken in Sandalen,ein Sakko,einen Wintermantel,eine Mütze,,,,4,None,3.5458739000023343,None,,,,,,,,,,,0,58,58,58,1020.2803940000013,,,,,,,,,,,,,,,,,,,,,,,,,,,,,,,,,,,,,,,,,,,,,,,,clips/clip_herz_06_nosub_2.mp4,audios/silence.mp3,visual,1020.2773234999913,1020.6956530000025,1020.8958652000001,1020.8956901666572,1020.8958652000001,1022.1472938999941,1031.5836154000135,1031.4798755999946,"[4.728103999979794, 8.150819899979979]",1031.5798357999884,1035.143264400016,4,1035.1433289000124,1035.1433558000135,None,4,1031.5836154000135,1031.5836154000135,1031.5836154000135,3.5458739000023343,None,,,,,,,,600683,001,2026-03-30_14h43.13.745,exp_sofc,,2025.2.3,59.6727783479875,2026-03-30 14h43.14.484219 +0200,
,59,59,0,,,,clip_dampf_02_sub_1,clips/clip_dampf_02_sub_1.mp4,audios/clip_dampf_02_sub_1.mp3,dampf,sub,1,2,3800.0,NA,9300,Was trägt der Mann?,Socken in Sandalen,ein Sakko,einen Wintermantel,eine Mütze,,,,3,None,5.649916499998653,None,,,,,,,,,,,0,59,59,59,1035.2616359000094,,,,,,,,,,,,,,,,,,,,,,,,,,,,,,,,,,,,,,,,,,,,,,,,clips/clip_claude_07_sub_0.mp4,audios/clip_claude_07_sub_0.mp3,audiovisual,1035.256153299997,1035.6444394999999,1035.8440043999872,1035.8447996666694,1035.8440043999872,1045.8768996,1045.9743707999878,1045.8770742999914,[],1045.9701303000038,1051.6277733999887,3,1051.627837100008,1171.630244400003,None,3,1045.9743707999878,1045.9743707999878,1045.9743707999878,5.649916499998653,None,1051.6433899000112,1051.6433899000112,1051.6433899000112,1171.7479053999996,1171.7479053999996,,,600683,001,2026-03-30_14h43.13.745,exp_sofc,,2025.2.3,59.6727783479875,2026-03-30 14h43.14.484219 +0200,
,60,60,0,,,,clip_dampf_03_nosub_1,clips/clip_dampf_03_nosub_1.mp4,audios/clip_dampf_03_nosub_1.mp3,dampf,nosub,1,3,6500.0,NA,7600,Mit welcher Person redet der Mann?,mit einem Mann,mit einer Frau,mit einem Kind,mit sich selbst,,,,None,None,,,,,,,,,,,,,0,60,60,60,1171.7479053999996,,,,,,,,,,,,,,,,,,,,,,,,,,,,,,,,,,,,,,,,,,,,,,,,clips/clip_claude_11_sub_0.mp4,audios/clip_claude_11_sub_0.mp3,audiovisual,1171.743035899999,1172.1318532000005,1172.3318634000025,1172.3311686666605,1172.3318634000025,1182.3466883999936,1182.5640174,1182.346885100007,[],1182.45095150001,1182.4509849000024,None,1182.4510162000079,1182.4510321000125,None,,,,,,,,,,,,,,600683,001,2026-03-30_14h43.13.745,exp_sofc,,2025.2.3,59.6727783479875,2026-03-30 14h43.14.484219 +0200,
,61,61,0,,,,clip_dampf_03_sub_1,clips/clip_dampf_03_sub_1.mp4,audios/clip_dampf_03_sub_1.mp3,dampf,sub,1,3,6566.0,NA,7600,Mit welcher Person redet der Mann?,mit einem Mann,mit einer Frau,mit einem Kind,mit sich selbst,,,,None,None,,,,,,,,,,,,,0,61,61,61,1182.5640174,,,,,,,,,,,,,,,,,,,,,,,,,,,,,,,,,,,,,,,,,,,,,,,,clips/clip_herz_15_nosub_0.mp4,audios/clip_herz_15_nosub_0.mp3,audiovisual,1182.558688899997,1182.9637566999882,1183.1655901999911,1183.164495966663,1183.1655901999911,1195.386514200014,1195.386514200014,1195.182524600008,[8.634609700005967],1195.2926927999943,1195.2927275999973,None,1195.2927644000156,1195.2927885999961,None,,,,,,,,,,,,,,600683,001,2026-03-30_14h43.13.745,exp_sofc,,2025.2.3,59.6727783479875,2026-03-30 14h43.14.484219 +0200,
,62,62,0,,,,clip_dampf_04_nosub_1,clips/clip_dampf_04_nosub_1.mp4,audios/clip_dampf_04_nosub_1.mp3,dampf,nosub,1,4,3780.0,NA,9600,Wie reagiert die Frau?,sie ist beleidigt,sie freut sich,sie weint,sie lacht,,,,None,None,,,,,,,,,,,,,0,62,62,62,1195.386514200014,,,,,,,,,,,,,,,,,,,,,,,,,,,,,,,,,,,,,,,,,,,,,,,,clips/clip_herz_12_sub_0.mp4,audios/silence.mp3,visual,1195.3806324999896,1195.7918471000157,1195.993130399991,1195.992520666656,1195.993130399991,1197.2447556999978,1205.2741406999994,1205.0898902000044,"[3.716485200013267, 6.004876799997874]",1205.1750370000082,1205.1750739999989,None,1205.1751405000105,1205.1751810999995,None,,,,,,,,,,,,,,600683,001,2026-03-30_14h43.13.745,exp_sofc,,2025.2.3,59.6727783479875,2026-03-30 14h43.14.484219 +0200,
,63,63,0,,,,clip_dampf_04_sub_1,clips/clip_dampf_04_sub_1.mp4,audios/clip_dampf_04_sub_1.mp3,dampf,sub,1,4,3833.0,NA,9600,Wie reagiert die Frau?,sie ist beleidigt,sie freut sich,sie weint,sie lacht,,,,3,None,2.6670041999896057,None,,,,,,,,,,,0,63,63,63,1205.2741406999994,,,,,,,,,,,,,,,,,,,,,,,,,,,,,,,,,,,,,,,,,,,,,,,,clips/clip_holo_02_nosub_2.mp4,audios/clip_holo_02_nosub_2.mp3,audiovisual,1205.2698725000082,1205.6756730999914,1205.8765319999948,1205.8761096666606,1205.8765319999948,,1217.190944300004,1217.0797313000076,"[3.8602795000188053, 7.897189500014065]",1217.185056599992,1219.8619714000088,3,1219.8620349999983,1219.862060000014,None,3,1217.190944300004,1217.190944300004,1217.190944300004,2.6670041999896057,None,,,,,,,,600683,001,2026-03-30_14h43.13.745,exp_sofc,,2025.2.3,59.6727783479875,2026-03-30 14h43.14.484219 +0200,
,64,64,0,,,,clip_dampf_05_nosub_2,clips/clip_dampf_05_nosub_2.mp4,audios/clip_dampf_05_nosub_2.mp3,dampf,nosub,2,5,2360.0,7320.0,8680,Was trägt der Polizist?,eine gelbe Sicherheitsjacke,eine Lederjacke,ein weißes Hemd,einen Pullover,,,,None,None,,,,,,,,,,,,,0,64,64,64,1219.9667493999877,,,,,,,,,,,,,,,,,,,,,,,,,,,,,,,,,,,,,,,,,,,,,,,,clips/clip_holo_15_sub_0.mp4,audios/silence.mp3,visual,1219.9600600000122,1220.3720704000152,1220.5714548999968,1220.5723472666616,1220.5714548999968,1221.8231855999911,1229.986078899994,1229.7692137999984,[6.110927200003061],1229.870704800007,1229.8707368999894,None,1229.870769800007,1229.8707853000087,None,,,,,,,,,,,,,,600683,001,2026-03-30_14h43.13.745,exp_sofc,,2025.2.3,59.6727783479875,2026-03-30 14h43.14.484219 +0200,
,65,65,0,,,,clip_dampf_05_sub_2,clips/clip_dampf_05_sub_2.mp4,audios/clip_dampf_05_sub_2.mp3,dampf,sub,2,5,2400.0,7366.0,8667,Was trägt der Polizist?,eine gelbe Sicherheitsjacke,eine Lederjacke,ein weißes Hemd,einen Pullover,,,,None,None,,,,,,,,,,,,,0,65,65,65,1229.986078899994,,,,,,,,,,,,,,,,,,,,,,,,,,,,,,,,,,,,,,,,,,,,,,,,clips/clip_weißt_27_sub_1.mp4,audios/clip_weißt_27_sub_1.mp3,audiovisual,1229.98066619999,1230.3858658999961,1230.5710172000108,1230.5701512666749,1230.5873900000006,1240.6695512000006,1240.8670634999871,1240.6697352000047,[7.871931699977722],1240.7598087000079,1240.759887399996,None,1240.7599579000089,1240.759983099997,None,,,,,,,,,,,,,,600683,001,2026-03-30_14h43.13.745,exp_sofc,,2025.2.3,59.6727783479875,2026-03-30 14h43.14.484219 +0200,
,66,66,0,,,,clip_dampf_06_nosub_2,clips/clip_dampf_06_nosub_2.mp4,audios/clip_dampf_06_nosub_2.mp3,dampf,nosub,0,6,NA,NA,9000,Wo befinden sich die Männer?,auf einem Dorfplatz,auf einem Laufsteg,im Wald,in den Bergen,,,,None,None,,,,,,,,,,,,,0,66,66,66,1240.8670634999871,,,,,,,,,,,,,,,,,,,,,,,,,,,,,,,,,,,,,,,,,,,,,,,,clips/clip_weißt_07_nosub_1.mp4,audios/clip_weißt_07_nosub_1.mp3,audiovisual,1240.8629388000118,1241.261707800004,1241.4615480999928,1241.4611901666542,1241.4615480999928,1251.1762213000038,1251.370720100007,1251.1763799999899,[3.68290960000013],1251.2732992999954,1251.273334700003,None,1251.2734024999954,1251.2734326999926,None,,,,,,,,,,,,,,600683,001,2026-03-30_14h43.13.745,exp_sofc,,2025.2.3,59.6727783479875,2026-03-30 14h43.14.484219 +0200,
,67,67,0,,,,clip_dampf_06_sub_2,clips/clip_dampf_06_sub_2.mp4,audios/clip_dampf_06_sub_2.mp3,dampf,sub,0,6,NA,NA,9000,Wo befinden sich die Männer?,auf einem Dorfplatz,auf einem Laufsteg,im Wald,in den Bergen,,,,None,None,,,,,,,,,,,,,0,67,67,67,1251.370720100007,,,,,,,,,,,,,,,,,,,,,,,,,,,,,,,,,,,,,,,,,,,,,,,,clips/clip_lied_01_nosub_1.mp4,audios/silence.mp3,visual,1251.3646788999904,1251.7862362999876,1251.9866441999911,1251.9863527666641,1251.9866441999911,1253.238173699996,1262.1920611000096,1262.018546700012,[4.727101700002095],1262.112684599997,1262.1127238000045,None,1262.1127635000157,1262.1127997000003,None,,,,,,,,,,,,,,600683,001,2026-03-30_14h43.13.745,exp_sofc,,2025.2.3,59.6727783479875,2026-03-30 14h43.14.484219 +0200,
,68,68,0,,,,clip_herz_01_nosub_1,clips/clip_herz_01_nosub_1.mp4,audios/clip_herz_01_nosub_1.mp3,herz,nosub,1,1,5040.0,NA,10580,Was macht die Frau?,sie schließt das Fenster,sie spielt Klavier,sie isst etwas,sie macht Sport,,,,2,None,2.719522600003984,None,,,,,,,,,,,0,68,68,68,1262.1920611000096,,,,,,,,,,,,,,,,,,,,,,,,,,,,,,,,,,,,,,,,,,,,,,,,clips/clip_dampf_02_sub_1.mp4,audios/silence.mp3,visual,1262.1859482,1262.619558300008,1262.8207353999896,1262.820110966659,1262.8207353999896,1264.0714390999929,1272.2442588999984,1272.1510389999894,[4.845092099974863],1272.2367155000102,1274.9809991999937,2,1274.9810651000007,1274.9810975000146,None,2,1272.2442588999984,1272.2442588999984,1272.2442588999984,2.719522600003984,None,,,,,,,,600683,001,2026-03-30_14h43.13.745,exp_sofc,,2025.2.3,59.6727783479875,2026-03-30 14h43.14.484219 +0200,
,69,69,0,,,,clip_herz_01_sub_1,clips/clip_herz_01_sub_1.mp4,audios/clip_herz_01_sub_1.mp3,herz,sub,1,1,5100.0,NA,10567,Was macht die Frau?,sie schließt das Fenster,sie spielt Klavier,sie isst etwas,sie macht Sport,,,,None,None,,,,,,,,,,,,,0,69,69,69,1275.112354300014,,,,,,,,,,,,,,,,,,,,,,,,,,,,,,,,,,,,,,,,,,,,,,,,clips/clip_holo_16_sub_1.mp4,audios/clip_holo_16_sub_1.mp3,audiovisual,1275.1070815999992,1275.4815112999931,1275.6824274999963,1275.6817865666565,1275.6824274999963,1287.6997118,1287.9178286000097,1287.6998744999873,[10.261995900014881],1287.7930972999893,1287.793133900006,None,1287.7931622999895,1287.7931779999926,None,,,,,,,,,,,,,,600683,001,2026-03-30_14h43.13.745,exp_sofc,,2025.2.3,59.6727783479875,2026-03-30 14h43.14.484219 +0200,
,70,70,0,,,,clip_herz_02_nosub_0,clips/clip_herz_02_nosub_0.mp4,audios/clip_herz_02_nosub_0.mp3,herz,nosub,1,2,7900.0,NA,12380,Wer trägt eine Brille?,die Frau,der Mann,beide,keiner,,,,None,None,,,,,,,,,,,,,0,70,70,70,1287.9178286000097,,,,,,,,,,,,,,,,,,,,,,,,,,,,,,,,,,,,,,,,,,,,,,,,clips/clip_wurst_15_sub_2.mp4,audios/clip_wurst_15_sub_2.mp3,audiovisual,1287.9125533000042,1288.3013885999972,1288.5016584999976,1288.5014492666562,1288.5016584999976,1297.9157421000127,1298.110287699994,1297.9159152999928,"[5.5474924000154715, 8.4634517999948]",1298.0138640000077,1298.013902900013,None,1298.0139483000094,1298.0139716000122,None,,,,,,,,,,,,,,600683,001,2026-03-30_14h43.13.745,exp_sofc,,2025.2.3,59.6727783479875,2026-03-30 14h43.14.484219 +0200,
,71,71,0,,,,clip_herz_02_sub_0,clips/clip_herz_02_sub_0.mp4,audios/clip_herz_02_sub_0.mp3,herz,sub,1,2,7966.0,NA,12367,Wer trägt eine Brille?,die Frau,der Mann,beide,keiner,,,,None,None,,,,,,,,,,,,,0,71,71,71,1298.110287699994,,,,,,,,,,,,,,,,,,,,,,,,,,,,,,,,,,,,,,,,,,,,,,,,clips/clip_wurst_14_sub_1.mp4,audios/silence.mp3,visual,1298.1040421999933,1298.5260425999877,1298.726257900009,1298.7257992666603,1298.726257900009,1299.9774349000072,1308.9439362999983,1308.7578150999907,[7.741846499993699],1308.8571284000063,1308.8571628000063,None,1308.8572009000054,1308.857231700007,None,,,,,,,,,,,,,,600683,001,2026-03-30_14h43.13.745,exp_sofc,,2025.2.3,59.6727783479875,2026-03-30 14h43.14.484219 +0200,
,72,72,0,,,,clip_herz_03_nosub_2,clips/clip_herz_03_nosub_2.mp4,audios/clip_herz_03_nosub_2.mp3,herz,nosub,2,3,3260.0,10100.0,12380,Was ist im Hintergrund?,eine vollgeschriebene Tafel,eine weiße Tapete,ein Panoramafenster,eine Betonwand,,,,None,None,,,,,,,,,,,,,0,72,72,72,1308.9439362999983,,,,,,,,,,,,,,,,,,,,,,,,,,,,,,,,,,,,,,,,,,,,,,,,clips/clip_lied_11_sub_1.mp4,audios/silence.mp3,visual,1308.9378496000136,1309.3602358000062,1309.5610004999908,1309.5605383666737,1309.5610004999908,1310.812469700002,1320.829461699992,1320.644935999997,[8.163224799995078],1320.723626299994,1320.723686500016,None,1320.7237248999882,1320.7237421000027,None,,,,,,,,,,,,,,600683,001,2026-03-30_14h43.13.745,exp_sofc,,2025.2.3,59.6727783479875,2026-03-30 14h43.14.484219 +0200,
,73,73,0,,,,clip_herz_03_sub_2,clips/clip_herz_03_sub_2.mp4,audios/clip_herz_03_sub_2.mp3,herz,sub,2,3,3300.0,10166.0,12367,Was ist im Hintergrund?,eine vollgeschriebene Tafel,eine weiße Tapete,ein Panoramafenster,eine Betonwand,,,,1,None,3.2976354000275023,None,,,,,,,,,,,0,73,73,73,1320.829461699992,,,,,,,,,,,,,,,,,,,,,,,,,,,,,,,,,,,,,,,,,,,,,,,,clips/clip_holo_24_sub_2.mp4,audios/clip_holo_24_sub_2.mp3,audiovisual,1320.8239885999938,1321.2313142000057,1321.429936600005,1321.4300618666787,1321.4467463000037,1331.2624158000108,1331.367956400005,1331.262588100013,"[7.072093800001312, 9.925372300000163]",1331.363758099993,1334.6762303000141,1,1334.6762852999964,1334.6763042999955,None,2,1331.367956400005,1331.367956400005,1331.367956400005,3.2976354000275023,None,,,,,,,,600683,001,2026-03-30_14h43.13.745,exp_sofc,,2025.2.3,59.6727783479875,2026-03-30 14h43.14.484219 +0200,
,74,74,0,,,,clip_herz_04_nosub_0,clips/clip_herz_04_nosub_0.mp4,audios/clip_herz_04_nosub_0.mp3,herz,nosub,1,4,6720.0,NA,11000,In welchem Raum stellt der Mann die Tasche ab?,in der Küche,im Wohnzimmer,im Schlafzimmer,im Keller,,,,None,None,,,,,,,,,,,,,0,74,74,74,1334.7725759999885,,,,,,,,,,,,,,,,,,,,,,,,,,,,,,,,,,,,,,,,,,,,,,,,clips/clip_lied_18_nosub_2.mp4,audios/silence.mp3,visual,1334.7678547000105,1335.1851546000107,1335.385257899994,1335.3849769666597,1335.385257899994,1336.6367747999902,1346.2672992000007,1346.085729000013,"[5.276116199995158, 7.6085269000031985]",1346.1722530999978,1346.172283699998,None,1346.172311900009,1346.172327200009,None,,,,,,,,,,,,,,600683,001,2026-03-30_14h43.13.745,exp_sofc,,2025.2.3,59.6727783479875,2026-03-30 14h43.14.484219 +0200,
,75,75,0,,,,clip_herz_04_sub_0,clips/clip_herz_04_sub_0.mp4,audios/clip_herz_04_sub_0.mp3,herz,sub,1,4,6766.0,NA,11000,In welchem Raum stellt der Mann die Tasche ab?,in der Küche,im Wohnzimmer,im Schlafzimmer,im Keller,,,,None,None,,,,,,,,,,,,,0,75,75,75,1346.2672992000007,,,,,,,,,,,,,,,,,,,,,,,,,,,,,,,,,,,,,,,,,,,,,,,,clips/clip_holo_09_nosub_2.mp4,audios/silence.mp3,visual,1346.2616632000136,1346.6858973999915,1346.887214199989,1346.8861055666678,1346.887214199989,1348.1378284000093,1358.5019366999913,1358.3376864999882,[],1358.4130887000065,1358.4131235000095,None,1358.4131603999995,1358.413182999997,None,,,,,,,,,,,,,,600683,001,2026-03-30_14h43.13.745,exp_sofc,,2025.2.3,59.6727783479875,2026-03-30 14h43.14.484219 +0200,
,76,76,0,,,,clip_herz_05_nosub_0,clips/clip_herz_05_nosub_0.mp4,audios/clip_herz_05_nosub_0.mp3,herz,nosub,2,5,320.0,5360.0,10880,Was trägt der Mann im Hintergrund?,ein Hemd und Sakko,ein T-Shirt,einen Bademantel,einen Pullover,,,,1,None,4.674058900011005,None,,,,,,,,,,,0,76,76,76,1358.5019366999913,,,,,,,,,,,,,,,,,,,,,,,,,,,,,,,,,,,,,,,,,,,,,,,,clips/clip_hund_03_nosub_1.mp4,audios/silence.mp3,visual,1358.4959853999899,1358.9190078999964,1359.1191633999988,1359.1189882666552,1359.1191633999988,1360.3705416999874,1371.1332425000146,1371.0211526000057,[6.485999900003662],1371.1290892999968,1375.808229599992,1,1375.8082973000128,1375.8083299999998,None,1,1371.1332425000146,1371.1332425000146,1371.1332425000146,4.674058900011005,None,,,,,,,,600683,001,2026-03-30_14h43.13.745,exp_sofc,,2025.2.3,59.6727783479875,2026-03-30 14h43.14.484219 +0200,
,77,77,0,,,,clip_herz_05_sub_0,clips/clip_herz_05_sub_0.mp4,audios/clip_herz_05_sub_0.mp3,herz,sub,2,5,5400.0,6666.0,10867,Was trägt der Mann im Hintergrund?,ein Hemd und Sakko,ein T-Shirt,einen Bademantel,einen Pullover,,,,None,None,,,,,,,,,,,,,0,77,77,77,1375.9029434999975,,,,,,,,,,,,,,,,,,,,,,,,,,,,,,,,,,,,,,,,,,,,,,,,clips/clip_wurst_26_sub_1.mp4,audios/silence.mp3,visual,1375.8965542000078,1376.3169994000054,1376.51817689999,1376.5177219666696,1376.51817689999,1377.7694373000122,1388.7382754000137,1388.5373798999935,[10.081240700004855],1388.6271567000076,1388.6271954000113,None,1388.6272302000143,1388.6272479000036,None,,,,,,,,,,,,,,600683,001,2026-03-30_14h43.13.745,exp_sofc,,2025.2.3,59.6727783479875,2026-03-30 14h43.14.484219 +0200,
,78,78,0,,,,clip_herz_06_nosub_2,clips/clip_herz_06_nosub_2.mp4,audios/clip_herz_06_nosub_2.mp3,herz,nosub,2,6,3560.0,6840.0,10560,Wo befindet sich der Mann?,auf dem Bett,unter freiem Himmel,auf einem Schiff,in einem Konzert,,,,None,None,,,,,,,,,,,,,0,78,78,78,1388.7382754000137,,,,,,,,,,,,,,,,,,,,,,,,,,,,,,,,,,,,,,,,,,,,,,,,clips/clip_hund_04_nosub_0.mp4,audios/clip_hund_04_nosub_0.mp3,audiovisual,1388.7321467000002,1389.1291947000136,1389.3298170999915,1389.3288317666777,1389.3298170999915,1398.8611373000022,1399.0573098000023,1398.861264200008,[],1398.9601219999895,1398.9601522000157,None,1398.9601862000127,1398.960207600001,None,,,,,,,,,,,,,,600683,001,2026-03-30_14h43.13.745,exp_sofc,,2025.2.3,59.6727783479875,2026-03-30 14h43.14.484219 +0200,
,79,79,0,,,,clip_herz_06_sub_2,clips/clip_herz_06_sub_2.mp4,audios/clip_herz_06_sub_2.mp3,herz,sub,2,6,3633.0,6900.0,10567,Wo befindet sich der Mann?,auf dem Bett,unter freiem Himmel,auf einem Schiff,in einem Konzert,,,,None,None,,,,,,,,,,,,,0,79,79,79,1399.0573098000023,,,,,,,,,,,,,,,,,,,,,,,,,,,,,,,,,,,,,,,,,,,,,,,,clips/clip_weißt_20_sub_1.mp4,audios/silence.mp3,visual,1399.050991199998,1399.4696727000119,1399.6707287000027,1399.6701205666798,1399.6707287000027,1400.9221481000131,1409.7255017000134,1409.5029843999946,[7.892176299996208],1409.6047068999906,1409.6047861000116,None,1409.6048375999962,1409.604854300007,None,,,,,,,,,,,,,,600683,001,2026-03-30_14h43.13.745,exp_sofc,,2025.2.3,59.6727783479875,2026-03-30 14h43.14.484219 +0200,
,80,80,0,,,,clip_herz_07_nosub_2,clips/clip_herz_07_nosub_2.mp4,audios/clip_herz_07_nosub_2.mp3,herz,nosub,2,7,2920.0,9560.0,12000,Was hält der Mann in der rechten Hand?,ein Trinkgefäß,gar nichts,einen Zauberwürfel,einen Hammer,,,,4,None,3.949711399996886,None,,,,,,,,,,,0,80,80,80,1409.7255017000134,,,,,,,,,,,,,,,,,,,,,,,,,,,,,,,,,,,,,,,,,,,,,,,,clips/clip_wurst_23_sub_2.mp4,audios/clip_wurst_23_sub_2.mp3,audiovisual,1409.7206459000008,1410.1198250000016,1410.3206336000003,1410.3200758666537,1410.3206336000003,1420.8362183000136,1420.935143700015,1420.836335,"[3.50593200000003, 7.869187199976295]",1420.9296304000018,1424.9014365999901,4,1424.9014901999908,1424.901518700004,None,4,1420.935143700015,1420.935143700015,1420.935143700015,3.949711399996886,None,,,,,,,,600683,001,2026-03-30_14h43.13.745,exp_sofc,,2025.2.3,59.6727783479875,2026-03-30 14h43.14.484219 +0200,
,81,81,0,,,,clip_herz_07_sub_2,clips/clip_herz_07_sub_2.mp4,audios/clip_herz_07_sub_2.mp3,herz,sub,2,7,3000.0,9633.0,12000,Was hält der Mann in der rechten Hand?,ein Trinkgefäß,gar nichts,einen Zauberwürfel,einen Hammer,,,,None,None,,,,,,,,,,,,,0,81,81,81,1425.0325882000034,,,,,,,,,,,,,,,,,,,,,,,,,,,,,,,,,,,,,,,,,,,,,,,,clips/clip_holo_12_sub_1.mp4,audios/clip_holo_12_sub_1.mp3,audiovisual,1425.02629899999,1425.4023291000049,1425.6033266000159,1425.6029607666753,1425.6033266000159,1435.6350887000153,1435.8760069000127,1435.6352680000127,[8.337063000013586],1435.7485756000096,1435.7486054000037,None,1435.7486334000132,1435.7486487000133,None,,,,,,,,,,,,,,600683,001,2026-03-30_14h43.13.745,exp_sofc,,2025.2.3,59.6727783479875,2026-03-30 14h43.14.484219 +0200,
,82,82,0,,,,clip_herz_08_nosub_0,clips/clip_herz_08_nosub_0.mp4,audios/clip_herz_08_nosub_0.mp3,herz,nosub,2,8,4100.0,8300.0,12000,Was hält die Frau in der Hand?,eine Tasse,einen Akkuschrauber,ein Buch,ein Metronom,,,,None,None,,,,,,,,,,,,,0,82,82,82,1435.8760069000127,,,,,,,,,,,,,,,,,,,,,,,,,,,,,,,,,,,,,,,,,,,,,,,,clips/clip_herz_03_nosub_2.mp4,audios/clip_herz_03_nosub_2.mp3,audiovisual,1435.8705771999958,1436.2590963999974,1436.4598100000003,1436.4592369666536,1436.4598100000003,1449.0492675999994,1449.0492675999994,1448.861781100015,"[4.359824599989224, 11.748627099994337]",1448.94972460001,1448.949800500006,None,1448.9498452999978,1448.9498619000078,None,,,,,,,,,,,,,,600683,001,2026-03-30_14h43.13.745,exp_sofc,,2025.2.3,59.6727783479875,2026-03-30 14h43.14.484219 +0200,
,83,83,0,,,,clip_herz_08_sub_0,clips/clip_herz_08_sub_0.mp4,audios/clip_herz_08_sub_0.mp3,herz,sub,2,8,4166.0,8366.0,12000,Was hält die Frau in der Hand?,eine Tasse,einen Akkuschrauber,ein Buch,ein Metronom,,,,None,None,,,,,,,,,,,,,0,83,83,83,1449.0492675999994,,,,,,,,,,,,,,,,,,,,,,,,,,,,,,,,,,,,,,,,,,,,,,,,clips/clip_wurst_20_nosub_0.mp4,audios/silence.mp3,visual,1449.0432889999938,1449.4493836000038,1449.6492769999895,1449.6491737666695,1449.6492769999895,1450.9014711999916,1459.8875998000149,1459.6820559999906,[],1459.7838810000103,1459.7839205999917,None,1459.7839562000008,1459.7839720000047,None,,,,,,,,,,,,,,600683,001,2026-03-30_14h43.13.745,exp_sofc,,2025.2.3,59.6727783479875,2026-03-30 14h43.14.484219 +0200,
,84,84,0,,,,clip_herz_09_nosub_0,clips/clip_herz_09_nosub_0.mp4,audios/clip_herz_09_nosub_0.mp3,herz,nosub,0,9,NA,NA,11500,Wie ist die Brille der Frau?,dick,filigran,sie hat keine Brille,rahmenlos,,,,None,None,,,,,,,,,,,,,0,84,84,84,1459.8875998000149,,,,,,,,,,,,,,,,,,,,,,,,,,,,,,,,,,,,,,,,,,,,,,,,clips/clip_hund_29_sub_0.mp4,audios/silence.mp3,visual,1459.881812800013,1460.2907465999888,1460.491786300001,1460.490957266655,1460.491786300001,1461.7434847000113,1472.1100559000042,1471.9090046999918,[10.484167800022988],1472.0017347999965,1472.0017869000148,None,1472.0018471000076,1472.0018806000007,None,,,,,,,,,,,,,,600683,001,2026-03-30_14h43.13.745,exp_sofc,,2025.2.3,59.6727783479875,2026-03-30 14h43.14.484219 +0200,
,85,85,0,,,,clip_herz_09_sub_0,clips/clip_herz_09_sub_0.mp4,audios/clip_herz_09_sub_0.mp3,herz,sub,0,9,NA,NA,11500,Wie ist die Brille der Frau?,dick,filigran,sie hat keine Brille,rahmenlos,,,,None,None,,,,,,,,,,,,,0,85,85,85,1472.1100559000042,,,,,,,,,,,,,,,,,,,,,,,,,,,,,,,,,,,,,,,,,,,,,,,,clips/clip_holo_06_nosub_2.mp4,audios/clip_holo_06_nosub_2.mp3,audiovisual,1472.1046736999997,1472.5021717000054,1472.702427500015,1472.702316266663,1472.702427500015,1482.4681345999998,1482.6765486999939,1482.4683050999884,[8.81615729999612],1482.558713800012,1482.5587593000091,None,1482.5587985999882,1482.5588143999921,None,,,,,,,,,,,,,,600683,001,2026-03-30_14h43.13.745,exp_sofc,,2025.2.3,59.6727783479875,2026-03-30 14h43.14.484219 +0200,
,86,86,0,,,,clip_herz_10_nosub_0,clips/clip_herz_10_nosub_0.mp4,audios/clip_herz_10_nosub_0.mp3,herz,nosub,0,10,NA,NA,10000,Worin kramt der Mann?,in einem Portemonnaie,in einem Aktenordner,in einem Kleiderschrank,in einem Rucksack,,,,1,None,2.693376699986402,None,,,,,,,,,,,0,86,86,86,1482.6765486999939,,,,,,,,,,,,,,,,,,,,,,,,,,,,,,,,,,,,,,,,,,,,,,,,clips/clip_herz_09_sub_0.mp4,audios/clip_herz_09_sub_0.mp3,audiovisual,1482.670886100008,1483.0598021000042,1483.2606618000136,1483.260089966676,1483.2606618000136,1494.8796588999976,1494.8796588999976,1494.7780496999912,[],1494.874450400006,1497.5743831,1,1497.5744392999914,1497.5744599000027,None,1,1494.8796588999976,1494.8796588999976,1494.8796588999976,2.693376699986402,None,,,,,,,,600683,001,2026-03-30_14h43.13.745,exp_sofc,,2025.2.3,59.6727783479875,2026-03-30 14h43.14.484219 +0200,
,87,87,0,,,,clip_herz_10_sub_0,clips/clip_herz_10_sub_0.mp4,audios/clip_herz_10_sub_0.mp3,herz,sub,0,10,NA,NA,10000,Worin kramt der Mann?,in einem Portemonnaie,in einem Aktenordner,in einem Kleiderschrank,in einem Rucksack,,,,None,None,,,,,,,,,,,,,0,87,87,87,1497.6842207000009,,,,,,,,,,,,,,,,,,,,,,,,,,,,,,,,,,,,,,,,,,,,,,,,clips/clip_wurst_13_nosub_0.mp4,audios/clip_wurst_13_nosub_0.mp3,audiovisual,1497.678525299998,1498.0841863999958,1498.2850903999934,1498.2844686666542,1498.2850903999934,1507.9162929999875,1508.0940128999937,1507.9164683000126,[],1508.0018908999918,1508.0019281000132,None,1508.0019567999989,1508.001972099999,None,,,,,,,,,,,,,,600683,001,2026-03-30_14h43.13.745,exp_sofc,,2025.2.3,59.6727783479875,2026-03-30 14h43.14.484219 +0200,
,88,88,0,,,,clip_herz_11_nosub_0,clips/clip_herz_11_nosub_0.mp4,audios/clip_herz_11_nosub_0.mp3,herz,nosub,1,11,3780.0,NA,9280,Wie wirkt der Mann?,demotiviert,engagiert,unterhaltsam,aufgelöst,,,,None,None,,,,,,,,,,,,,0,88,88,88,1508.0940128999937,,,,,,,,,,,,,,,,,,,,,,,,,,,,,,,,,,,,,,,,,,,,,,,,clips/clip_wurst_05_sub_0.mp4,audios/silence.mp3,visual,1508.0881664000044,1508.5187651999877,1508.7017541000096,1508.7013182666599,1508.7180638000136,1509.9529416000005,1517.5834819000156,1517.3983812000079,[],1517.4784087000007,1517.4784602000145,None,1517.4784949999885,1517.4785115999985,None,,,,,,,,,,,,,,600683,001,2026-03-30_14h43.13.745,exp_sofc,,2025.2.3,59.6727783479875,2026-03-30 14h43.14.484219 +0200,
,89,89,0,,,,clip_herz_11_sub_0,clips/clip_herz_11_sub_0.mp4,audios/clip_herz_11_sub_0.mp3,herz,sub,1,11,3833.0,NA,9267,Wie wirkt der Mann?,demotiviert,engagiert,unterhaltsam,aufgelöst,,,,None,None,,,,,,,,,,,,,0,89,89,89,1517.5834819000156,,,,,,,,,,,,,,,,,,,,,,,,,,,,,,,,,,,,,,,,,,,,,,,,clips/clip_hund_19_sub_0.mp4,audios/clip_hund_19_sub_0.mp3,audiovisual,1517.5776342999889,1517.9832701999985,1518.1837199000001,1518.1844370666697,1518.1837199000001,1529.7317480999918,1529.7317480999918,1529.5383663999964,[],1529.6223906000087,1529.6224446000124,None,1529.6225278000056,1529.6225544000044,None,,,,,,,,,,,,,,600683,001,2026-03-30_14h43.13.745,exp_sofc,,2025.2.3,59.6727783479875,2026-03-30 14h43.14.484219 +0200,
,90,90,0,,,,clip_herz_12_nosub_0,clips/clip_herz_12_nosub_0.mp4,audios/clip_herz_12_nosub_0.mp3,herz,nosub,1,12,4680.0,NA,9080,Was hat der Gast mitgebracht?,eine Weinflasche,einen Kasten Bier,einen Blumenstrauß,eine Schachtel Pralinen,,,,None,None,,,,,,,,,,,,,0,90,90,90,1529.7317480999918,,,,,,,,,,,,,,,,,,,,,,,,,,,,,,,,,,,,,,,,,,,,,,,,clips/clip_claude_23_sub_0.mp4,audios/clip_claude_23_sub_0.mp3,audiovisual,1529.7263574000099,1530.1272730999917,1530.3280137999973,1530.3274162666678,1530.3280137999973,1542.6705841000075,1542.6705841000075,1542.4796414000157,[9.207013100007316],1542.5720151000132,1542.5720557000022,None,1542.5720892999962,1542.5721067000122,None,,,,,,,,,,,,,,600683,001,2026-03-30_14h43.13.745,exp_sofc,,2025.2.3,59.6727783479875,2026-03-30 14h43.14.484219 +0200,
,91,91,0,,,,clip_herz_12_sub_0,clips/clip_herz_12_sub_0.mp4,audios/clip_herz_12_sub_0.mp3,herz,sub,1,12,4733.0,NA,9067,Was hat der Gast mitgebracht?,eine Weinflasche,einen Kasten Bier,einen Blumenstrauß,eine Schachtel Pralinen,,,,None,None,,,,,,,,,,,,,0,91,91,91,1542.6705841000075,,,,,,,,,,,,,,,,,,,,,,,,,,,,,,,,,,,,,,,,,,,,,,,,clips/clip_hund_12_nosub_1.mp4,audios/silence.mp3,visual,1542.664585599996,1543.0873490000085,1543.2884696999972,1543.2883574666669,1543.2884696999972,1544.5402488000109,1554.7020650999912,1554.5062779000145,[9.826832199993078],1554.5899868000124,1554.5900629000098,None,1554.590113400016,1554.590134900005,None,,,,,,,,,,,,,,600683,001,2026-03-30_14h43.13.745,exp_sofc,,2025.2.3,59.6727783479875,2026-03-30 14h43.14.484219 +0200,
,92,92,0,,,,clip_herz_13_nosub_0,clips/clip_herz_13_nosub_0.mp4,audios/clip_herz_13_nosub_0.mp3,herz,nosub,1,13,6500.0,NA,11180,Was macht die Frau?,sie nutzt Wimperntusche vor dem Spiegel,sie duscht,sie kämmt sich,sie telefoniert,,,,None,None,,,,,,,,,,,,,0,92,92,92,1554.7020650999912,,,,,,,,,,,,,,,,,,,,,,,,,,,,,,,,,,,,,,,,,,,,,,,,clips/clip_holo_22_nosub_1.mp4,audios/clip_holo_22_nosub_1.mp3,audiovisual,1554.6962105999992,1555.0981152000022,1555.2983520000125,1555.2979308666584,1555.2983520000125,,1564.7209163999942,1564.5032141999982,[9.398771500011208],1564.6053497999965,1564.6054286000144,None,1564.6054855000111,1564.6055065999972,None,,,,,,,,,,,,,,600683,001,2026-03-30_14h43.13.745,exp_sofc,,2025.2.3,59.6727783479875,2026-03-30 14h43.14.484219 +0200,
,93,93,0,,,,clip_herz_13_sub_0,clips/clip_herz_13_sub_0.mp4,audios/clip_herz_13_sub_0.mp3,herz,sub,1,13,6566.0,NA,11167,Was macht die Frau?,sie nutzt Wimperntusche vor dem Spiegel,sie duscht,sie kämmt sich,sie telefoniert,,,,None,None,,,,,,,,,,,,,0,93,93,93,1564.7209163999942,,,,,,,,,,,,,,,,,,,,,,,,,,,,,,,,,,,,,,,,,,,,,,,,clips/clip_claude_24_nosub_1.mp4,audios/silence.mp3,visual,1564.7144936000113,1565.1128749999916,1565.3154732999974,1565.3152789666822,1565.3154732999974,1566.5659482000046,1571.7272964000003,1571.5232631000108,[6.278512999997474],1571.6278837000136,1571.627918400016,None,1571.627962700004,1571.6279816000024,None,,,,,,,,,,,,,,600683,001,2026-03-30_14h43.13.745,exp_sofc,,2025.2.3,59.6727783479875,2026-03-30 14h43.14.484219 +0200,
,94,94,0,,,,clip_herz_14_nosub_0,clips/clip_herz_14_nosub_0.mp4,audios/clip_herz_14_nosub_0.mp3,herz,nosub,0,14,NA,NA,10500,Was trinken die Männer?,Wein,Bier,Spezi,Mineralwasser,,,,None,None,,,,,,,,,,,,,0,94,94,94,1571.7272964000003,,,,,,,,,,,,,,,,,,,,,,,,,,,,,,,,,,,,,,,,,,,,,,,,clips/clip_claude_26_sub_0.mp4,audios/silence.mp3,visual,1571.721156399988,1572.1327965999953,1572.332716600009,1572.3324423666675,1572.332716600009,1573.5844563000137,1583.4559491999971,1583.2507232000062,[],1583.3580768000102,1583.3581088999927,None,1583.3581489000062,1583.3581826000009,None,,,,,,,,,,,,,,600683,001,2026-03-30_14h43.13.745,exp_sofc,,2025.2.3,59.6727783479875,2026-03-30 14h43.14.484219 +0200,
,95,95,0,,,,clip_herz_14_sub_0,clips/clip_herz_14_sub_0.mp4,audios/clip_herz_14_sub_0.mp3,herz,sub,0,14,NA,NA,10500,Was trinken die Männer?,Wein,Bier,Spezi,Mineralwasser,,,,None,None,,,,,,,,,,,,,0,95,95,95,1583.4559491999971,,,,,,,,,,,,,,,,,,,,,,,,,,,,,,,,,,,,,,,,,,,,,,,,clips/clip_holo_23_sub_1.mp4,audios/silence.mp3,visual,1583.4500344000116,1583.8592366999947,1584.0599627000047,1584.0596088666682,1584.0599627000047,1585.3107893000124,1594.2954613000038,1594.0920046000101,[],1594.2047019999882,1594.2047340999998,None,1594.2047661000106,1594.2047848000075,None,,,,,,,,,,,,,,600683,001,2026-03-30_14h43.13.745,exp_sofc,,2025.2.3,59.6727783479875,2026-03-30 14h43.14.484219 +0200,
,96,96,0,,,,clip_herz_15_nosub_0,clips/clip_herz_15_nosub_0.mp4,audios/clip_herz_15_nosub_0.mp3,herz,nosub,2,15,2080.0,6680.0,12000,Was trägt der Mann an der Tür?,ein Hemd,ein T-Shirt,einen Pullover,eine Lederjacke,,,,None,None,,,,,,,,,,,,,0,96,96,96,1594.2954613000038,,,,,,,,,,,,,,,,,,,,,,,,,,,,,,,,,,,,,,,,,,,,,,,,clips/clip_dampf_06_sub_2.mp4,audios/silence.mp3,visual,1594.2893717999978,1594.717567899992,1594.9185357000097,1594.9180726666566,1594.9185357000097,1596.169456100004,1604.1287483999913,1603.9490538999962,[],1604.0437201999885,1604.0437543000153,None,1604.0438435999968,1604.0438869000063,None,,,,,,,,,,,,,,600683,001,2026-03-30_14h43.13.745,exp_sofc,,2025.2.3,59.6727783479875,2026-03-30 14h43.14.484219 +0200,
,97,97,0,,,,clip_herz_15_sub_0,clips/clip_herz_15_sub_0.mp4,audios/clip_herz_15_sub_0.mp3,herz,sub,2,15,2133.0,6733.0,12000,Was trägt der Mann an der Tür?,ein Hemd,ein T-Shirt,einen Pullover,eine Lederjacke,,,,None,None,,,,,,,,,,,,,0,97,97,97,1604.1287483999913,,,,,,,,,,,,,,,,,,,,,,,,,,,,,,,,,,,,,,,,,,,,,,,,clips/clip_wurst_28_nosub_1.mp4,audios/silence.mp3,visual,1604.1245060999936,1604.5495943000133,1604.7503517000005,1604.7499055666597,1604.7503517000005,1606.0018528999935,1615.264936499996,1615.0823346000107,"[0.8347394000156783, 0.918460100016091, 9.309838300017873]",1615.162693899998,1615.1627322999993,None,1615.1628114999912,1615.1628360000032,None,,,,,,,,,,,,,,600683,001,2026-03-30_14h43.13.745,exp_sofc,,2025.2.3,59.6727783479875,2026-03-30 14h43.14.484219 +0200,
,98,98,0,,,,clip_herz_16_nosub_0,clips/clip_herz_16_nosub_0.mp4,audios/clip_herz_16_nosub_0.mp3,herz,nosub,0,16,NA,NA,9000,Wo befinden sich die Personen?,im Bett,im Auto,im Wohnzimmer,in der Küche,,,,None,None,,,,,,,,,,,,,0,98,98,98,1615.264936499996,,,,,,,,,,,,,,,,,,,,,,,,,,,,,,,,,,,,,,,,,,,,,,,,clips/clip_herz_11_nosub_0.mp4,audios/clip_herz_11_nosub_0.mp3,audiovisual,1615.2595468999934,1615.6667543000076,1615.8673935999977,1615.8672079666615,1615.8673935999977,,1625.370572499989,1625.168505700014,[5.272622699994827],1625.2529461999948,1625.2530126000056,None,1625.253054300003,1625.253071300016,None,,,,,,,,,,,,,,600683,001,2026-03-30_14h43.13.745,exp_sofc,,2025.2.3,59.6727783479875,2026-03-30 14h43.14.484219 +0200,
,99,99,0,,,,clip_herz_16_sub_0,clips/clip_herz_16_sub_0.mp4,audios/clip_herz_16_sub_0.mp3,herz,sub,0,16,NA,NA,9000,Wo befinden sich die Personen?,im Bett,im Auto,im Wohnzimmer,in der Küche,,,,None,None,,,,,,,,,,,,,0,99,99,99,1625.370572499989,,,,,,,,,,,,,,,,,,,,,,,,,,,,,,,,,,,,,,,,,,,,,,,,clips/clip_herz_01_sub_1.mp4,audios/clip_herz_01_sub_1.mp3,audiovisual,1625.365296200005,1625.7573290000146,1625.9579352000146,1625.9575307666712,1625.9579352000146,,1636.7492889999994,1636.5431912000058,[6.3345561000169255],1636.6497766000102,1636.6498367000022,None,1636.6498805999872,1636.6498998999887,None,,,,,,,,,,,,,,600683,001,2026-03-30_14h43.13.745,exp_sofc,,2025.2.3,59.6727783479875,2026-03-30 14h43.14.484219 +0200,
,100,100,0,,,,clip_herz_17_nosub_0,clips/clip_herz_17_nosub_0.mp4,audios/clip_herz_17_nosub_0.mp3,herz,nosub,1,17,4360.0,NA,8180,Woraus trinken die Männer?,aus Dosen,aus Gläsern,aus Flaschen,aus Tassen,,,,None,None,,,,,,,,,,,,,0,100,100,100,1636.7492889999994,,,,,,,,,,,,,,,,,,,,,,,,,,,,,,,,,,,,,,,,,,,,,,,,clips/clip_holo_13_nosub_1.mp4,audios/silence.mp3,visual,1636.7432199000032,1637.1500416999916,1637.3525575000094,1637.3508746666814,1637.3525575000094,1638.6022652999964,1649.3543478999927,1649.1692333999963,[4.2014984999841545],1649.2603162000014,1649.2603594000102,None,1649.2604032999952,1649.2604390000051,None,,,,,,,,,,,,,,600683,001,2026-03-30_14h43.13.745,exp_sofc,,2025.2.3,59.6727783479875,2026-03-30 14h43.14.484219 +0200,
,101,101,0,,,,clip_herz_17_sub_0,clips/clip_herz_17_sub_0.mp4,audios/clip_herz_17_sub_0.mp3,herz,sub,1,17,4400.0,NA,8167,Woraus trinken die Männer?,aus Dosen,aus Gläsern,aus Flaschen,aus Tassen,,,,None,None,,,,,,,,,,,,,0,101,101,101,1649.3543478999927,,,,,,,,,,,,,,,,,,,,,,,,,,,,,,,,,,,,,,,,,,,,,,,,clips/clip_hund_22_sub_1.mp4,audios/silence.mp3,visual,1649.3492246000096,1649.7719419999921,1649.9720143000013,1649.9735191666734,1649.9720143000013,1651.2250242999871,1660.181457300001,1660.0043693000043,"[5.866957399994135, 8.479502300004242]",1660.0836464999884,1660.0836786,None,1660.0837108000123,1660.083730000013,None,,,,,,,,,,,,,,600683,001,2026-03-30_14h43.13.745,exp_sofc,,2025.2.3,59.6727783479875,2026-03-30 14h43.14.484219 +0200,
,102,102,0,,,,clip_holo_01_nosub_1,clips/clip_holo_01_nosub_1.mp4,audios/clip_holo_01_nosub_1.mp3,holo,nosub,1,1,2920.0,NA,9180,Auf was schaut der Mann?,seine Armbanduhr,die Aussicht,eine Frau,sein Handy,,,,None,None,,,,,,,,,,,,,0,102,102,102,1660.181457300001,,,,,,,,,,,,,,,,,,,,,,,,,,,,,,,,,,,,,,,,,,,,,,,,clips/clip_holo_11_sub_2.mp4,audios/silence.mp3,visual,1660.175359099987,1660.5890268000076,1660.7891994999954,1660.7887013666661,1660.7891994999954,1662.040492900007,1670.6325366999954,1670.454825199995,"[5.530652799992822, 9.103322300012223]",1670.535332600004,1670.5353704000008,None,1670.5354550000047,1670.5354932000046,None,,,,,,,,,,,,,,600683,001,2026-03-30_14h43.13.745,exp_sofc,,2025.2.3,59.6727783479875,2026-03-30 14h43.14.484219 +0200,
,103,103,0,,,,clip_holo_01_sub_1,clips/clip_holo_01_sub_1.mp4,audios/clip_holo_01_sub_1.mp3,holo,sub,1,1,2966.0,NA,9167,Auf was schaut der Mann?,seine Armbanduhr,die Aussicht,eine Frau,sein Handy,,,,None,None,,,,,,,,,,,,,0,103,103,103,1670.6325366999954,,,,,,,,,,,,,,,,,,,,,,,,,,,,,,,,,,,,,,,,,,,,,,,,clips/clip_dampf_04_nosub_1.mp4,audios/silence.mp3,visual,1670.6264835000038,1671.037968699995,1671.2387292000058,1671.2385365666744,1671.2387292000058,1672.490103899996,1681.0621947000036,1680.871249799995,[5.419940099993255],1680.9668515000085,1680.9668945000158,None,1680.9669316000072,1680.9669521999895,None,,,,,,,,,,,,,,600683,001,2026-03-30_14h43.13.745,exp_sofc,,2025.2.3,59.6727783479875,2026-03-30 14h43.14.484219 +0200,
,104,104,0,,,,clip_holo_02_nosub_2,clips/clip_holo_02_nosub_2.mp4,audios/clip_holo_02_nosub_2.mp3,holo,nosub,2,2,2800.0,6880.0,11180,Was macht der Mann?,er telefoniert,er kocht,er schläft,er liest,,,,None,None,,,,,,,,,,,,,0,104,104,104,1681.0621947000036,,,,,,,,,,,,,,,,,,,,,,,,,,,,,,,,,,,,,,,,,,,,,,,,clips/clip_lied_19_nosub_1.mp4,audios/clip_lied_19_nosub_1.mp3,audiovisual,1681.0569647999946,1681.4794597,1681.6792429999914,1681.678687666663,1681.6792429999914,,1692.567224600003,1692.382604000013,"[2.1924135999870487, 5.432837500004098]",1692.4548091999895,1692.4548500000092,None,1692.454890299996,1692.4549133999972,None,,,,,,,,,,,,,,600683,001,2026-03-30_14h43.13.745,exp_sofc,,2025.2.3,59.6727783479875,2026-03-30 14h43.14.484219 +0200,
,105,105,0,,,,clip_holo_02_sub_2,clips/clip_holo_02_sub_2.mp4,audios/clip_holo_02_sub_2.mp3,holo,sub,2,2,2866.0,6933.0,11167,Was macht der Mann?,er telefoniert,er kocht,er schläft,er liest,,,,4,None,3.2817834000161383,None,,,,,,,,,,,0,105,105,105,1692.567224600003,,,,,,,,,,,,,,,,,,,,,,,,,,,,,,,,,,,,,,,,,,,,,,,,clips/clip_claude_27_sub_0.mp4,audios/clip_claude_27_sub_0.mp3,audiovisual,1692.5616289000027,1692.9667894000013,1693.1673853000102,1693.1670343666667,1693.1673853000102,1705.1858347000089,1705.295212099998,1705.1860190000152,[],1705.2895111000107,1708.5844773999997,4,1708.5845699000056,1708.5845988999936,None,4,1705.295212099998,1705.295212099998,1705.295212099998,3.2817834000161383,None,,,,,,,,600683,001,2026-03-30_14h43.13.745,exp_sofc,,2025.2.3,59.6727783479875,2026-03-30 14h43.14.484219 +0200,
,106,106,0,,,,clip_holo_03_nosub_1,clips/clip_holo_03_nosub_1.mp4,audios/clip_holo_03_nosub_1.mp3,holo,nosub,1,3,6240.0,NA,9500,Was trägt der Mann?,einen Anzug mit Krawatte,eine Badehose,einen Trainingsanzug,eine Jeans,,,,None,None,,,,,,,,,,,,,0,106,106,106,1708.6788210000086,,,,,,,,,,,,,,,,,,,,,,,,,,,,,,,,,,,,,,,,,,,,,,,,clips/clip_holo_21_nosub_1.mp4,audios/silence.mp3,visual,1708.6720720999874,1709.0939633999951,1709.293809099996,1709.293616266663,1709.293809099996,1710.546837700007,1719.7089880999993,1719.4928496000066,[4.676225500006694],1719.5908870999992,1719.5909167999926,None,1719.590944800002,1719.5909602000029,None,,,,,,,,,,,,,,600683,001,2026-03-30_14h43.13.745,exp_sofc,,2025.2.3,59.6727783479875,2026-03-30 14h43.14.484219 +0200,
,107,107,0,,,,clip_holo_03_sub_1,clips/clip_holo_03_sub_1.mp4,audios/clip_holo_03_sub_1.mp3,holo,sub,1,3,6300.0,NA,9500,Was trägt der Mann?,einen Anzug mit Krawatte,eine Badehose,einen Trainingsanzug,eine Jeans,,,,None,None,,,,,,,,,,,,,0,107,107,107,1719.7089880999993,,,,,,,,,,,,,,,,,,,,,,,,,,,,,,,,,,,,,,,,,,,,,,,,clips/clip_herz_13_sub_0.mp4,audios/clip_herz_13_sub_0.mp3,audiovisual,1719.7051743000047,1720.0939223000023,1720.2946792000148,1720.2938423666676,1720.2946792000148,,1731.6958957999886,1731.4789460999891,[7.690577900008066],1731.577807499998,1731.5778412999935,None,1731.5778855000099,1731.577901200013,None,,,,,,,,,,,,,,600683,001,2026-03-30_14h43.13.745,exp_sofc,,2025.2.3,59.6727783479875,2026-03-30 14h43.14.484219 +0200,
,108,108,0,,,,clip_holo_04_nosub_2,clips/clip_holo_04_nosub_2.mp4,audios/clip_holo_04_nosub_2.mp3,holo,nosub,2,4,1940.0,5820.0,12000,Auf was schauen die Männer?,auf ein Modell einer Stadt,auf einen Bauplan,auf eine Landkarte,auf einen Bildschirm,,,,None,None,,,,,,,,,,,,,0,108,108,108,1731.6958957999886,,,,,,,,,,,,,,,,,,,,,,,,,,,,,,,,,,,,,,,,,,,,,,,,clips/clip_wurst_33_nosub_0.mp4,audios/clip_wurst_33_nosub_0.mp3,audiovisual,1731.6912466000067,1732.0792370999989,1732.2798480000056,1732.2794076666798,1732.2798480000056,1742.0120839999872,1742.2086240999924,1742.0122727999988,[],1742.112176900002,1742.1122093999875,None,1742.1122427000082,1742.112262300012,None,,,,,,,,,,,,,,600683,001,2026-03-30_14h43.13.745,exp_sofc,,2025.2.3,59.6727783479875,2026-03-30 14h43.14.484219 +0200,
,109,109,0,,,,clip_holo_04_sub_2,clips/clip_holo_04_sub_2.mp4,audios/clip_holo_04_sub_2.mp3,holo,sub,2,4,2000.0,5866.0,12000,Auf was schauen die Männer?,auf ein Modell einer Stadt,auf einen Bauplan,auf eine Landkarte,auf einen Bildschirm,,,,2,None,2.5838373000151478,None,,,,,,,,,,,0,109,109,109,1742.2086240999924,,,,,,,,,,,,,,,,,,,,,,,,,,,,,,,,,,,,,,,,,,,,,,,,clips/clip_weißt_13_nosub_0.mp4,audios/silence.mp3,visual,1742.2039869000146,1742.6219823000138,1742.8208556000027,1742.8209363666576,1742.8378149000055,1744.072560600005,1753.7482261999976,1753.6387308000121,[],1753.7424770999933,1756.3368645999872,2,1756.3369320000056,1756.336957899999,None,2,1753.7482261999976,1753.7482261999976,1753.7482261999976,2.5838373000151478,None,,,,,,,,600683,001,2026-03-30_14h43.13.745,exp_sofc,,2025.2.3,59.6727783479875,2026-03-30 14h43.14.484219 +0200,
