instruction_text,thisN,thisTrialN,thisRepN,prac_attention_resp.keys,prac_attention_resp.rt,prac_attention_resp.duration,exp_atttention_resp.keys,exp_pause_resp.keys,exp_atttention_resp.rt,exp_atttention_resp.duration,exp_pause_resp.rt,exp_pause_resp.duration,instruction_trial.thisRepN,instruction_trial.thisTrialN,instruction_trial.thisN,instruction_trial.thisIndex,practice_trials.thisRepN,practice_trials.thisTrialN,practice_trials.thisN,practice_trials.thisIndex,experiment_trials.thisRepN,experiment_trials.thisTrialN,experiment_trials.thisN,experiment_trials.thisIndex,thisRow.t,notes,assigned_ls_group,slider_informed_consent.response,Practice_clip_name,Practice_video_used,Practice_audio_used,Practice_modality,Practice_subtitles,Practice_attention_check,Practice_all_cut_rts,practice_trials.prac_attention_resp.keys,Practice_correct_key_required,practice_trials.prac_attention_resp.rt,practice_trials.prac_attention_resp.duration,video_used,audio_used,condition_modality,all_cut_rts,experiment_trials.exp_atttention_resp.keys,experiment_trials.exp_pause_resp.keys,correct_key_required,experiment_trials.exp_atttention_resp.rt,experiment_trials.exp_atttention_resp.duration,experiment_trials.exp_pause_resp.rt,experiment_trials.exp_pause_resp.duration,participant,session,date,expName,expVersion,psychopyVersion,frameRate,expStart,
"Einverständniserklärung

Bitte lesen Sie die folgende Erklärung aufmerksam durch:

Ich bestätige, dass ich über 18 Jahre alt bin und ausreichend Zeit hatte, mich für die Teilnahme zu entscheiden. Ich wurde über die Erhebung, Verarbeitung und öffentliche Zugänglichmachung meiner anonymisierten Daten angemessen informiert.
Ich bin mir bewusst, dass ich das Experiment jederzeit abbrechen kann.

(Drücken Sie die Leertaste, um fortzufahren)",4,4,0,,,,,,,,,,0,4,4,4,,,,,,,,,22.775255375003326,,0,ich stimme zu,,,,,,,,,,,,,,,,,,,,,,,100,A,2026-03-29_19h28.30.736,exp_sofc_final,,2025.2.3,None,2026-03-29 19h28.32.062327 +0200,
,,,,,,,,,,,,,,,,,,,,,,,,,,,,,,,,,,,,,,,,,,,,,,,,,,,100,A,2026-03-29_19h28.30.736,exp_sofc_final,,2025.2.3,None,2026-03-29 19h28.32.062327 +0200,
,0,0,0,None,,,,,,,,,,,,,0,0,0,0,,,,,38.12943549999909,,,,clip_weißt_09_sub_1,clips/clip_weißt_09_sub_1.mp4,audios/silence.mp3,visual,sub,False,[],None,,,,,,,,,,,,,,,100,A,2026-03-29_19h28.30.736,exp_sofc_final,,2025.2.3,None,2026-03-29 19h28.32.062327 +0200,
,1,0,1,None,,,,,,,,,,,,,1,0,1,0,,,,,47.32133849999809,,,,clip_weißt_10_nosub_1,clips/clip_weißt_10_nosub_1.mp4,audios/clip_weißt_10_nosub_1.mp3,audiovisual,nosub,False,[],None,,,,,,,,,,,,,,,100,A,2026-03-29_19h28.30.736,exp_sofc_final,,2025.2.3,None,2026-03-29 19h28.32.062327 +0200,
,2,0,2,1,13.760217540999292,None,,,,,,,,,,,2,0,2,0,,,,,59.11335187499935,,,,clip_hund_25_sub_1,clips/clip_hund_25_sub_1.mp4,audios/silence.mp3,visual,sub,True,[0.349426916000084],1,4,13.760217540999292,None,,,,,,,,,,,,100,A,2026-03-29_19h28.30.736,exp_sofc_final,,2025.2.3,None,2026-03-29 19h28.32.062327 +0200,
,3,0,3,None,,,,,,,,,,,,,3,0,3,0,,,,,82.01695733400265,,,,clip_weißt_18_nosub_1,clips/clip_weißt_18_nosub_1.mp4,audios/silence.mp3,visual,nosub,False,[6.977069999993546],None,,,,,,,,,,,,,,,100,A,2026-03-29_19h28.30.736,exp_sofc_final,,2025.2.3,None,2026-03-29 19h28.32.062327 +0200,
,4,0,4,None,,,,,,,,,,,,,4,0,4,0,,,,,94.81698687499738,,,,clip_weißt_05_sub_0,clips/clip_weißt_05_sub_0.mp4,audios/clip_weißt_05_sub_0.mp3,audiovisual,sub,False,[],None,,,,,,,,,,,,,,,100,A,2026-03-29_19h28.30.736,exp_sofc_final,,2025.2.3,None,2026-03-29 19h28.32.062327 +0200,
,5,0,5,None,,,,,,,,,,,,,5,0,5,0,,,,,105.37948704200244,,,,clip_wurst_09_sub_1,clips/clip_wurst_09_sub_1.mp4,audios/clip_wurst_09_sub_1.mp3,audiovisual,sub,False,[4.786754624998139],None,,,,,,,,,,,,,,,100,A,2026-03-29_19h28.30.736,exp_sofc_final,,2025.2.3,None,2026-03-29 19h28.32.062327 +0200,
,6,0,6,None,,,,,,,,,,,,,6,0,6,0,,,,,117.44200120899768,,,,clip_hund_06_nosub_0,clips/clip_hund_06_nosub_0.mp4,audios/clip_hund_06_nosub_0.mp3,audiovisual,nosub,False,[10.474303208000492],None,,,,,,,,,,,,,,,100,A,2026-03-29_19h28.30.736,exp_sofc_final,,2025.2.3,None,2026-03-29 19h28.32.062327 +0200,
,7,0,7,4,5.65185433300212,None,,,,,,,,,,,7,0,7,0,,,,,129.09248258399748,,,,clip_hund_02_sub_1,clips/clip_hund_02_sub_1.mp4,audios/clip_hund_02_sub_1.mp3,audiovisual,sub,True,"[9.844330125000852, 9.996500875000493]",4,3,5.65185433300212,None,,,,,,,,,,,,100,A,2026-03-29_19h28.30.736,exp_sofc_final,,2025.2.3,None,2026-03-29 19h28.32.062327 +0200,
,8,0,8,2,7.6429061660019215,None,,,,,,,,,,,8,0,8,0,,,,,145.46896350000316,,,,clip_hund_28_nosub_0,clips/clip_hund_28_nosub_0.mp4,audios/clip_hund_28_nosub_0.mp3,audiovisual,nosub,True,[],2,2,7.6429061660019215,None,,,,,,,,,,,,100,A,2026-03-29_19h28.30.736,exp_sofc_final,,2025.2.3,None,2026-03-29 19h28.32.062327 +0200,
,9,0,9,None,,,,,,,,,,,,,9,0,9,0,,,,,163.74584312499792,,,,clip_hund_31_sub_0,clips/clip_hund_31_sub_0.mp4,audios/silence.mp3,visual,sub,False,[],None,,,,,,,,,,,,,,,100,A,2026-03-29_19h28.30.736,exp_sofc_final,,2025.2.3,None,2026-03-29 19h28.32.062327 +0200,
,10,0,10,1,4.68968437500007,None,,,,,,,,,,,10,0,10,0,,,,,172.95430629199836,,,,clip_hund_26_sub_1,clips/clip_hund_26_sub_1.mp4,audios/silence.mp3,visual,sub,True,[],1,1,4.68968437500007,None,,,,,,,,,,,,100,A,2026-03-29_19h28.30.736,exp_sofc_final,,2025.2.3,None,2026-03-29 19h28.32.062327 +0200,
,11,0,11,None,,,,,,,,,,,,,11,0,11,0,,,,,187.81207500000164,,,,clip_weißt_21_nosub_0,clips/clip_weißt_21_nosub_0.mp4,audios/silence.mp3,visual,nosub,False,[],None,,,,,,,,,,,,,,,100,A,2026-03-29_19h28.30.736,exp_sofc_final,,2025.2.3,None,2026-03-29 19h28.32.062327 +0200,
,,,,,,,,,,,,,,,,,,,,,,,,,,,,,,,,,,,,,,,,,,,,,,,,,,,100,A,2026-03-29_19h28.30.736,exp_sofc_final,,2025.2.3,None,2026-03-29 19h28.32.062327 +0200,
,0,0,0,,,,None,None,,,,,,,,,,,,,0,0,0,0,207.02998254200065,,,,,,,,,,,,,,,clips/clip_lied_06_nosub_1.mp4,audios/silence.mp3,visual,[],None,None,,,,,,100,A,2026-03-29_19h28.30.736,exp_sofc_final,,2025.2.3,None,2026-03-29 19h28.32.062327 +0200,
,1,0,1,,,,None,None,,,,,,,,,,,,,1,0,1,0,220.39399299999786,,,,,,,,,,,,,,,clips/clip_hund_17_nosub_1.mp4,audios/silence.mp3,visual,[10.11187674899702],None,None,,,,,,100,A,2026-03-29_19h28.30.736,exp_sofc_final,,2025.2.3,None,2026-03-29 19h28.32.062327 +0200,
,2,0,2,,,,None,None,,,,,,,,,,,,,2,0,2,0,233.45858095899894,,,,,,,,,,,,,,,clips/clip_lied_21_sub_2.mp4,audios/silence.mp3,visual,"[5.190148125002452, 11.339007333001064]",None,None,,,,,,100,A,2026-03-29_19h28.30.736,exp_sofc_final,,2025.2.3,None,2026-03-29 19h28.32.062327 +0200,
,3,0,3,,,,None,None,,,,,,,,,,,,,3,0,3,0,245.74923162499908,,,,,,,,,,,,,,,clips/clip_lied_19_nosub_1.mp4,audios/silence.mp3,visual,[5.046019416004128],None,None,,,,,,100,A,2026-03-29_19h28.30.736,exp_sofc_final,,2025.2.3,None,2026-03-29 19h28.32.062327 +0200,
,4,0,4,,,,None,None,,,,,,,,,,,,,4,0,4,0,257.2062961249976,,,,,,,,,,,,,,,clips/clip_hund_27_nosub_1.mp4,audios/silence.mp3,visual,[4.703930540999863],None,None,,,,,,100,A,2026-03-29_19h28.30.736,exp_sofc_final,,2025.2.3,None,2026-03-29 19h28.32.062327 +0200,
,5,0,5,,,,1,None,5.455724416999146,None,,,,,,,,,,,5,0,5,0,268.2057618339968,,,,,,,,,,,,,,,clips/clip_wurst_13_sub_0.mp4,audios/silence.mp3,visual,[],1,None,2,5.455724416999146,None,,,100,A,2026-03-29_19h28.30.736,exp_sofc_final,,2025.2.3,None,2026-03-29 19h28.32.062327 +0200,
,6,0,6,,,,None,None,,,,,,,,,,,,,6,0,6,0,284.12030441700335,,,,,,,,,,,,,,,clips/clip_hund_20_sub_0.mp4,audios/clip_hund_20_sub_0.mp3,audiovisual,[],None,None,,,,,,100,A,2026-03-29_19h28.30.736,exp_sofc_final,,2025.2.3,None,2026-03-29 19h28.32.062327 +0200,
,7,0,7,,,,None,None,,,,,,,,,,,,,7,0,7,0,296.40362054199795,,,,,,,,,,,,,,,clips/clip_hund_30_sub_0.mp4,audios/silence.mp3,visual,[],None,None,,,,,,100,A,2026-03-29_19h28.30.736,exp_sofc_final,,2025.2.3,None,2026-03-29 19h28.32.062327 +0200,
,8,0,8,,,,None,None,,,,,,,,,,,,,8,0,8,0,309.20045866700093,,,,,,,,,,,,,,,clips/clip_wurst_14_sub_1.mp4,audios/clip_wurst_14_sub_1.mp3,audiovisual,[],None,None,,,,,,100,A,2026-03-29_19h28.30.736,exp_sofc_final,,2025.2.3,None,2026-03-29 19h28.32.062327 +0200,
,9,0,9,,,,None,None,,,,,,,,,,,,,9,0,9,0,320.0042360840016,,,,,,,,,,,,,,,clips/clip_wurst_28_nosub_1.mp4,audios/clip_wurst_28_nosub_1.mp3,audiovisual,[],None,None,,,,,,100,A,2026-03-29_19h28.30.736,exp_sofc_final,,2025.2.3,None,2026-03-29 19h28.32.062327 +0200,
,10,0,10,,,,None,None,,,,,,,,,,,,,10,0,10,0,331.105256750001,,,,,,,,,,,,,,,clips/clip_hund_15_sub_1.mp4,audios/silence.mp3,visual,[8.319777041004272],None,None,,,,,,100,A,2026-03-29_19h28.30.736,exp_sofc_final,,2025.2.3,None,2026-03-29 19h28.32.062327 +0200,
,11,0,11,,,,None,None,,,,,,,,,,,,,11,0,11,0,342.3156889590027,,,,,,,,,,,,,,,clips/clip_claude_09_nosub_2.mp4,audios/silence.mp3,visual,[4.019185375000234],None,None,,,,,,100,A,2026-03-29_19h28.30.736,exp_sofc_final,,2025.2.3,None,2026-03-29 19h28.32.062327 +0200,
,12,0,12,,,,None,None,,,,,,,,,,,,,12,0,12,0,353.3080009589976,,,,,,,,,,,,,,,clips/clip_herz_13_sub_0.mp4,audios/silence.mp3,visual,[7.668940374998783],None,None,,,,,,100,A,2026-03-29_19h28.30.736,exp_sofc_final,,2025.2.3,None,2026-03-29 19h28.32.062327 +0200,
,13,0,13,,,,None,None,,,,,,,,,,,,,13,0,13,0,365.2773040000029,,,,,,,,,,,,,,,clips/clip_hund_03_sub_1.mp4,audios/clip_hund_03_sub_1.mp3,audiovisual,[6.599048042000504],None,None,,,,,,100,A,2026-03-29_19h28.30.736,exp_sofc_final,,2025.2.3,None,2026-03-29 19h28.32.062327 +0200,
,14,0,14,,,,None,None,,,,,,,,,,,,,14,0,14,0,377.928469708997,,,,,,,,,,,,,,,clips/clip_dampf_02_nosub_1.mp4,audios/clip_dampf_02_nosub_1.mp3,audiovisual,[],None,None,,,,,,100,A,2026-03-29_19h28.30.736,exp_sofc_final,,2025.2.3,None,2026-03-29 19h28.32.062327 +0200,
,15,0,15,,,,None,None,,,,,,,,,,,,,15,0,15,0,388.02932950000104,,,,,,,,,,,,,,,clips/clip_dampf_01_nosub_0.mp4,audios/silence.mp3,visual,[],None,None,,,,,,100,A,2026-03-29_19h28.30.736,exp_sofc_final,,2025.2.3,None,2026-03-29 19h28.32.062327 +0200,
,16,0,16,,,,None,None,,,,,,,,,,,,,16,0,16,0,398.2733888750008,,,,,,,,,,,,,,,clips/clip_holo_23_nosub_1.mp4,audios/clip_holo_23_nosub_1.mp3,audiovisual,[],None,None,,,,,,100,A,2026-03-29_19h28.30.736,exp_sofc_final,,2025.2.3,None,2026-03-29 19h28.32.062327 +0200,
,17,0,17,,,,None,None,,,,,,,,,,,,,17,0,17,0,409.09060624999984,,,,,,,,,,,,,,,clips/clip_holo_26_sub_2.mp4,audios/clip_holo_26_sub_2.mp3,audiovisual,"[6.443142875003105, 8.510317291998945]",None,None,,,,,,100,A,2026-03-29_19h28.30.736,exp_sofc_final,,2025.2.3,None,2026-03-29 19h28.32.062327 +0200,
,18,0,18,,,,None,None,,,,,,,,,,,,,18,0,18,0,419.02837920899765,,,,,,,,,,,,,,,clips/clip_claude_15_sub_0.mp4,audios/silence.mp3,visual,[8.897285540995654],None,None,,,,,,100,A,2026-03-29_19h28.30.736,exp_sofc_final,,2025.2.3,None,2026-03-29 19h28.32.062327 +0200,
,19,0,19,,,,4,None,2.6067827500010026,None,,,,,,,,,,,19,0,19,0,431.8207087920018,,,,,,,,,,,,,,,clips/clip_herz_17_sub_0.mp4,audios/silence.mp3,visual,[5.529900875000749],4,None,4,2.6067827500010026,None,,,100,A,2026-03-29_19h28.30.736,exp_sofc_final,,2025.2.3,None,2026-03-29 19h28.32.062327 +0200,
,20,0,20,,,,2,None,4.647243373998208,None,,,,,,,,,,,20,0,20,0,443.43011750000005,,,,,,,,,,,,,,,clips/clip_hund_32_sub_1.mp4,audios/clip_hund_32_sub_1.mp3,audiovisual,"[4.77745816600509, 10.353021833005187]",2,None,2,4.647243373998208,None,,,100,A,2026-03-29_19h28.30.736,exp_sofc_final,,2025.2.3,None,2026-03-29 19h28.32.062327 +0200,
,21,0,21,,,,4,None,7.05222391600546,None,,,,,,,,,,,21,0,21,0,458.8695021250023,,,,,,,,,,,,,,,clips/clip_holo_20_sub_1.mp4,audios/silence.mp3,visual,[1.8453842910021194],4,None,1,7.05222391600546,None,,,100,A,2026-03-29_19h28.30.736,exp_sofc_final,,2025.2.3,None,2026-03-29 19h28.32.062327 +0200,
,22,0,22,,,,None,None,,,,,,,,,,,,,22,0,22,0,476.12724508399697,,,,,,,,,,,,,,,clips/clip_hund_08_sub_1.mp4,audios/clip_hund_08_sub_1.mp3,audiovisual,[1.5211260829964885],None,None,,,,,,100,A,2026-03-29_19h28.30.736,exp_sofc_final,,2025.2.3,None,2026-03-29 19h28.32.062327 +0200,
,23,0,23,,,,None,None,,,,,,,,,,,,,23,0,23,0,486.88373191699793,,,,,,,,,,,,,,,clips/clip_hund_11_sub_1.mp4,audios/silence.mp3,visual,[6.356445708006504],None,None,,,,,,100,A,2026-03-29_19h28.30.736,exp_sofc_final,,2025.2.3,None,2026-03-29 19h28.32.062327 +0200,
,24,0,24,,,,None,None,,,,,,,,,,,,,24,0,24,0,497.3784870840027,,,,,,,,,,,,,,,clips/clip_holo_15_nosub_0.mp4,audios/clip_holo_15_nosub_0.mp3,audiovisual,[6.247023000003537],None,None,,,,,,100,A,2026-03-29_19h28.30.736,exp_sofc_final,,2025.2.3,None,2026-03-29 19h28.32.062327 +0200,
,25,0,25,,,,None,None,,,,,,,,,,,,,25,0,25,0,507.3451922500026,,,,,,,,,,,,,,,clips/clip_holo_01_sub_1.mp4,audios/clip_holo_01_sub_1.mp3,audiovisual,[4.148621332999028],None,None,,,,,,100,A,2026-03-29_19h28.30.736,exp_sofc_final,,2025.2.3,None,2026-03-29 19h28.32.062327 +0200,
,26,0,26,,,,None,None,,,,,,,,,,,,,26,0,26,0,517.2852428749975,,,,,,,,,,,,,,,clips/clip_claude_17_nosub_1.mp4,audios/silence.mp3,visual,[10.41852970799664],None,None,,,,,,100,A,2026-03-29_19h28.30.736,exp_sofc_final,,2025.2.3,None,2026-03-29 19h28.32.062327 +0200,
,27,0,27,,,,None,None,,,,,,,,,,,,,27,0,27,0,529.5952727920012,,,,,,,,,,,,,,,clips/clip_lied_20_nosub_2.mp4,audios/clip_lied_20_nosub_2.mp3,audiovisual,"[3.7280390829982935, 8.165701707999688]",None,None,,,,,,100,A,2026-03-29_19h28.30.736,exp_sofc_final,,2025.2.3,None,2026-03-29 19h28.32.062327 +0200,
,28,0,28,,,,None,None,,,,,,,,,,,,,28,0,28,0,541.0549381250021,,,,,,,,,,,,,,,clips/clip_claude_27_sub_0.mp4,audios/silence.mp3,visual,[],None,None,,,,,,100,A,2026-03-29_19h28.30.736,exp_sofc_final,,2025.2.3,None,2026-03-29 19h28.32.062327 +0200,
,29,0,29,,,,None,None,,,,,,,,,,,,,29,0,29,0,553.8459997500031,,,,,,,,,,,,,,,clips/clip_lied_16_nosub_2.mp4,audios/clip_lied_16_nosub_2.mp3,audiovisual,"[3.901804916000401, 6.637881873997685]",None,None,,,,,,100,A,2026-03-29_19h28.30.736,exp_sofc_final,,2025.2.3,None,2026-03-29 19h28.32.062327 +0200,
,30,0,30,,,,1,None,5.317797625000821,None,,,,,,,,,,,30,0,30,0,565.2118640420013,,,,,,,,,,,,,,,clips/clip_weißt_07_nosub_1.mp4,audios/clip_weißt_07_nosub_1.mp3,audiovisual,[3.810362083000655],1,None,1,5.317797625000821,None,,,100,A,2026-03-29_19h28.30.736,exp_sofc_final,,2025.2.3,None,2026-03-29 19h28.32.062327 +0200,
,31,0,31,,,,None,None,,,,,,,,,,,,,31,0,31,0,581.0671291670005,,,,,,,,,,,,,,,clips/clip_claude_08_sub_0.mp4,audios/clip_claude_08_sub_0.mp3,audiovisual,[],None,None,,,,,,100,A,2026-03-29_19h28.30.736,exp_sofc_final,,2025.2.3,None,2026-03-29 19h28.32.062327 +0200,
,32,0,32,,,,None,None,,,,,,,,,,,,,32,0,32,0,591.4554732090037,,,,,,,,,,,,,,,clips/clip_hund_12_sub_1.mp4,audios/clip_hund_12_sub_1.mp3,audiovisual,[9.839787832999718],None,None,,,,,,100,A,2026-03-29_19h28.30.736,exp_sofc_final,,2025.2.3,None,2026-03-29 19h28.32.062327 +0200,
,33,0,33,,,,None,None,,,,,,,,,,,,,33,0,33,0,603.4426434170018,,,,,,,,,,,,,,,clips/clip_lied_22_sub_1.mp4,audios/clip_lied_22_sub_1.mp3,audiovisual,[6.087582749998546],None,None,,,,,,100,A,2026-03-29_19h28.30.736,exp_sofc_final,,2025.2.3,None,2026-03-29 19h28.32.062327 +0200,
,34,0,34,,,,None,None,,,,,,,,,,,,,34,0,34,0,614.7167075000034,,,,,,,,,,,,,,,clips/clip_wurst_29_sub_1.mp4,audios/silence.mp3,visual,[],None,None,,,,,,100,A,2026-03-29_19h28.30.736,exp_sofc_final,,2025.2.3,None,2026-03-29 19h28.32.062327 +0200,
,35,0,35,,,,None,None,,,,,,,,,,,,,35,0,35,0,627.5162008749976,,,,,,,,,,,,,,,clips/clip_holo_22_nosub_1.mp4,audios/silence.mp3,visual,[9.104937332995178],None,None,,,,,,100,A,2026-03-29_19h28.30.736,exp_sofc_final,,2025.2.3,None,2026-03-29 19h28.32.062327 +0200,
,36,0,36,,,,None,None,,,,,,,,,,,,,36,0,36,0,637.4900084589972,,,,,,,,,,,,,,,clips/clip_wurst_34_sub_2.mp4,audios/clip_wurst_34_sub_2.mp3,audiovisual,"[4.458043749000353, 6.457127582994872]",None,None,,,,,,100,A,2026-03-29_19h28.30.736,exp_sofc_final,,2025.2.3,None,2026-03-29 19h28.32.062327 +0200,
,37,0,37,,,,None,None,,,,,,,,,,,,,37,0,37,0,646.7759636249975,,,,,,,,,,,,,,,clips/clip_holo_04_sub_2.mp4,audios/silence.mp3,visual,"[3.297915623996232, 7.02697108299617]",None,None,,,,,,100,A,2026-03-29_19h28.30.736,exp_sofc_final,,2025.2.3,None,2026-03-29 19h28.32.062327 +0200,
,38,0,38,,,,None,None,,,,,,,,,,,,,38,0,38,0,659.566530666998,,,,,,,,,,,,,,,clips/clip_weißt_14_sub_2.mp4,audios/silence.mp3,visual,"[2.492558416997781, 8.033913749997737]",None,None,,,,,,100,A,2026-03-29_19h28.30.736,exp_sofc_final,,2025.2.3,None,2026-03-29 19h28.32.062327 +0200,
,39,0,39,,,,None,None,,,,,,,,,,,,,39,0,39,0,669.2595921250031,,,,,,,,,,,,,,,clips/clip_herz_06_sub_2.mp4,audios/clip_herz_06_sub_2.mp3,audiovisual,"[4.89357100000052, 8.009561083003064]",None,None,,,,,,100,A,2026-03-29_19h28.30.736,exp_sofc_final,,2025.2.3,None,2026-03-29 19h28.32.062327 +0200,
,40,0,40,,,,None,None,,,,,,,,,,,,,40,0,40,0,680.5945355840013,,,,,,,,,,,,,,,clips/clip_holo_17_sub_0.mp4,audios/clip_holo_17_sub_0.mp3,audiovisual,[],None,None,,,,,,100,A,2026-03-29_19h28.30.736,exp_sofc_final,,2025.2.3,None,2026-03-29 19h28.32.062327 +0200,
,41,0,41,,,,None,None,,,,,,,,,,,,,41,0,41,0,691.2047394589972,,,,,,,,,,,,,,,clips/clip_holo_09_sub_2.mp4,audios/clip_holo_09_sub_2.mp3,audiovisual,[],None,None,,,,,,100,A,2026-03-29_19h28.30.736,exp_sofc_final,,2025.2.3,None,2026-03-29 19h28.32.062327 +0200,
,42,0,42,,,,None,None,,,,,,,,,,,,,42,0,42,0,703.3597557500034,,,,,,,,,,,,,,,clips/clip_herz_15_nosub_0.mp4,audios/silence.mp3,visual,"[3.518604500000947, 7.8771775829955]",None,None,,,,,,100,A,2026-03-29_19h28.30.736,exp_sofc_final,,2025.2.3,None,2026-03-29 19h28.32.062327 +0200,
,43,0,43,,,,4,None,6.2778441659975215,None,,,,,,,,,,,43,0,43,0,716.1574745000034,,,,,,,,,,,,,,,clips/clip_wurst_25_sub_1.mp4,audios/silence.mp3,visual,[],4,None,4,6.2778441659975215,None,,,100,A,2026-03-29_19h28.30.736,exp_sofc_final,,2025.2.3,None,2026-03-29 19h28.32.062327 +0200,
,44,0,44,,,,None,None,,,,,,,,,,,,,44,0,44,0,734.4956509589974,,,,,,,,,,,,,,,clips/clip_hund_07_sub_1.mp4,audios/silence.mp3,visual,[6.639281417003076],None,None,,,,,,100,A,2026-03-29_19h28.30.736,exp_sofc_final,,2025.2.3,None,2026-03-29 19h28.32.062327 +0200,
,45,0,45,,,,None,None,,,,,,,,,,,,,45,0,45,0,746.8843646250025,,,,,,,,,,,,,,,clips/clip_claude_22_nosub_2.mp4,audios/clip_claude_22_nosub_2.mp3,audiovisual,[8.085909625006025],None,None,,,,,,100,A,2026-03-29_19h28.30.736,exp_sofc_final,,2025.2.3,None,2026-03-29 19h28.32.062327 +0200,
,46,0,46,,,,None,None,,,,,,,,,,,,,46,0,46,0,758.3855459170009,,,,,,,,,,,,,,,clips/clip_hund_21_nosub_1.mp4,audios/silence.mp3,visual,[6.350367582999752],None,None,,,,,,100,A,2026-03-29_19h28.30.736,exp_sofc_final,,2025.2.3,None,2026-03-29 19h28.32.062327 +0200,
,47,0,47,,,,None,None,,,,,,,,,,,,,47,0,47,0,769.1638264170033,,,,,,,,,,,,,,,clips/clip_wurst_17_sub_0.mp4,audios/silence.mp3,visual,[4.919329083000775],None,None,,,,,,100,A,2026-03-29_19h28.30.736,exp_sofc_final,,2025.2.3,None,2026-03-29 19h28.32.062327 +0200,
,48,0,48,,,,None,None,,,,,,,,,,,,,48,0,48,0,777.9489977089979,,,,,,,,,,,,,,,clips/clip_wurst_11_nosub_0.mp4,audios/silence.mp3,visual,[],None,None,,,,,,100,A,2026-03-29_19h28.30.736,exp_sofc_final,,2025.2.3,None,2026-03-29 19h28.32.062327 +0200,
,49,0,49,,,,None,None,,,,,,,,,,,,,49,0,49,0,790.7540948750029,,,,,,,,,,,,,,,clips/clip_wurst_24_nosub_1.mp4,audios/clip_wurst_24_nosub_1.mp3,audiovisual,[],None,None,,,,,,100,A,2026-03-29_19h28.30.736,exp_sofc_final,,2025.2.3,None,2026-03-29 19h28.32.062327 +0200,
,50,0,50,,,,3,None,10.50658604199998,None,,,,,,,,,,,50,0,50,0,802.851422959,,,,,,,,,,,,,,,clips/clip_holo_27_nosub_1.mp4,audios/silence.mp3,visual,[5.396993291004037],3,None,4,10.50658604199998,None,,,100,A,2026-03-29_19h28.30.736,exp_sofc_final,,2025.2.3,None,2026-03-29 19h28.32.062327 +0200,
,51,0,51,,,,3,None,2.9786867490038276,None,,,,,,,,,,,51,0,51,0,824.2060853340008,,,,,,,,,,,,,,,clips/clip_weißt_01_nosub_1.mp4,audios/silence.mp3,visual,[6.734133957994345],3,None,3,2.9786867490038276,None,,,100,A,2026-03-29_19h28.30.736,exp_sofc_final,,2025.2.3,None,2026-03-29 19h28.32.062327 +0200,
,52,0,52,,,,None,None,,,,,,,,,,,,,52,0,52,0,838.9842819999976,,,,,,,,,,,,,,,clips/clip_lied_05_sub_0.mp4,audios/clip_lied_05_sub_0.mp3,audiovisual,[],None,None,,,,,,100,A,2026-03-29_19h28.30.736,exp_sofc_final,,2025.2.3,None,2026-03-29 19h28.32.062327 +0200,
,53,0,53,,,,None,None,,,,,,,,,,,,,53,0,53,0,849.1607044170014,,,,,,,,,,,,,,,clips/clip_lied_01_sub_1.mp4,audios/clip_lied_01_sub_1.mp3,audiovisual,[5.014344123999763],None,None,,,,,,100,A,2026-03-29_19h28.30.736,exp_sofc_final,,2025.2.3,None,2026-03-29 19h28.32.062327 +0200,
,54,0,54,,,,None,None,,,,,,,,,,,,,54,0,54,0,859.9358326669972,,,,,,,,,,,,,,,clips/clip_herz_11_nosub_0.mp4,audios/silence.mp3,visual,[5.4197246249968885],None,None,,,,,,100,A,2026-03-29_19h28.30.736,exp_sofc_final,,2025.2.3,None,2026-03-29 19h28.32.062327 +0200,
,55,0,55,,,,3,None,3.5502458330010995,None,,,,,,,,,,,55,0,55,0,870.0108332500022,,,,,,,,,,,,,,,clips/clip_wurst_21_sub_0.mp4,audios/silence.mp3,visual,[],3,None,3,3.5502458330010995,None,,,100,A,2026-03-29_19h28.30.736,exp_sofc_final,,2025.2.3,None,2026-03-29 19h28.32.062327 +0200,
,56,0,56,,,,None,None,,,,,,,,,,,,,56,0,56,0,884.8862792919972,,,,,,,,,,,,,,,clips/clip_wurst_35_nosub_0.mp4,audios/silence.mp3,visual,[],None,None,,,,,,100,A,2026-03-29_19h28.30.736,exp_sofc_final,,2025.2.3,None,2026-03-29 19h28.32.062327 +0200,
,57,0,57,,,,1,None,2.8707691250019707,None,,,,,,,,,,,57,0,57,0,895.0528302500024,,,,,,,,,,,,,,,clips/clip_holo_21_sub_1.mp4,audios/clip_holo_21_sub_1.mp3,audiovisual,[5.090374792001967],1,None,1,2.8707691250019707,None,,,100,A,2026-03-29_19h28.30.736,exp_sofc_final,,2025.2.3,None,2026-03-29 19h28.32.062327 +0200,
,58,0,58,,,,None,None,,,,,,,,,,,,,58,0,58,0,908.9230373340033,,,,,,,,,,,,,,,clips/clip_wurst_22_sub_0.mp4,audios/clip_wurst_22_sub_0.mp3,audiovisual,[],None,None,,,,,,100,A,2026-03-29_19h28.30.736,exp_sofc_final,,2025.2.3,None,2026-03-29 19h28.32.062327 +0200,
,59,0,59,,,,None,space,,,7.481217082997318,None,,,,,,,,,59,0,59,0,921.3248611669987,,,,,,,,,,,,,,,clips/clip_holo_16_sub_1.mp4,audios/silence.mp3,visual,[10.45740141600254],None,space,,,,7.481217082997318,None,100,A,2026-03-29_19h28.30.736,exp_sofc_final,,2025.2.3,None,2026-03-29 19h28.32.062327 +0200,
,60,0,60,,,,None,None,,,,,,,,,,,,,60,0,60,0,941.6530806250012,,,,,,,,,,,,,,,clips/clip_claude_24_sub_1.mp4,audios/clip_claude_24_sub_1.mp3,audiovisual,[5.920841625003959],None,None,,,,,,100,A,2026-03-29_19h28.30.736,exp_sofc_final,,2025.2.3,None,2026-03-29 19h28.32.062327 +0200,
,61,0,61,,,,None,None,,,,,,,,,,,,,61,0,61,0,948.603626791999,,,,,,,,,,,,,,,clips/clip_holo_18_nosub_0.mp4,audios/silence.mp3,visual,"[6.751226458000019, 8.746414375003951]",None,None,,,,,,100,A,2026-03-29_19h28.30.736,exp_sofc_final,,2025.2.3,None,2026-03-29 19h28.32.062327 +0200,
,62,0,62,,,,None,None,,,,,,,,,,,,,62,0,62,0,961.2459873749976,,,,,,,,,,,,,,,clips/clip_hund_10_nosub_0.mp4,audios/clip_hund_10_nosub_0.mp3,audiovisual,[8.105405248999887],None,None,,,,,,100,A,2026-03-29_19h28.30.736,exp_sofc_final,,2025.2.3,None,2026-03-29 19h28.32.062327 +0200,
,63,0,63,,,,None,None,,,,,,,,,,,,,63,0,63,0,971.5216470840023,,,,,,,,,,,,,,,clips/clip_holo_28_nosub_0.mp4,audios/clip_holo_28_nosub_0.mp3,audiovisual,[],None,None,,,,,,100,A,2026-03-29_19h28.30.736,exp_sofc_final,,2025.2.3,None,2026-03-29 19h28.32.062327 +0200,
,64,0,64,,,,None,None,,,,,,,,,,,,,64,0,64,0,980.8106544170005,,,,,,,,,,,,,,,clips/clip_lied_07_nosub_1.mp4,audios/clip_lied_07_nosub_1.mp3,audiovisual,[4.600035583003773],None,None,,,,,,100,A,2026-03-29_19h28.30.736,exp_sofc_final,,2025.2.3,None,2026-03-29 19h28.32.062327 +0200,
,65,0,65,,,,4,None,3.2087224580027396,None,,,,,,,,,,,65,0,65,0,990.6064923340018,,,,,,,,,,,,,,,clips/clip_herz_04_nosub_0.mp4,audios/clip_herz_04_nosub_0.mp3,audiovisual,[7.809908582996286],4,None,4,3.2087224580027396,None,,,100,A,2026-03-29_19h28.30.736,exp_sofc_final,,2025.2.3,None,2026-03-29 19h28.32.062327 +0200,
,66,0,66,,,,None,None,,,,,,,,,,,,,66,0,66,0,1005.6271810420003,,,,,,,,,,,,,,,clips/clip_claude_04_sub_2.mp4,audios/clip_claude_04_sub_2.mp3,audiovisual,"[8.406874457999947, 9.699093082999752]",None,None,,,,,,100,A,2026-03-29_19h28.30.736,exp_sofc_final,,2025.2.3,None,2026-03-29 19h28.32.062327 +0200,
,67,0,67,,,,None,None,,,,,,,,,,,,,67,0,67,0,1015.3959723340013,,,,,,,,,,,,,,,clips/clip_claude_23_sub_0.mp4,audios/silence.mp3,visual,[],None,None,,,,,,100,A,2026-03-29_19h28.30.736,exp_sofc_final,,2025.2.3,None,2026-03-29 19h28.32.062327 +0200,
,68,0,68,,,,None,None,,,,,,,,,,,,,68,0,68,0,1028.3345177090014,,,,,,,,,,,,,,,clips/clip_lied_18_sub_2.mp4,audios/clip_lied_18_sub_2.mp3,audiovisual,"[5.444908041004965, 7.396021125001425]",None,None,,,,,,100,A,2026-03-29_19h28.30.736,exp_sofc_final,,2025.2.3,None,2026-03-29 19h28.32.062327 +0200,
,69,0,69,,,,None,None,,,,,,,,,,,,,69,0,69,0,1039.7987863340022,,,,,,,,,,,,,,,clips/clip_lied_17_sub_2.mp4,audios/silence.mp3,visual,"[2.854053541996109, 7.603101749999041]",None,None,,,,,,100,A,2026-03-29_19h28.30.736,exp_sofc_final,,2025.2.3,None,2026-03-29 19h28.32.062327 +0200,
,70,0,70,,,,None,None,,,,,,,,,,,,,70,0,70,0,1050.6093656250014,,,,,,,,,,,,,,,clips/clip_wurst_18_sub_0.mp4,audios/clip_wurst_18_sub_0.mp3,audiovisual,[],None,None,,,,,,100,A,2026-03-29_19h28.30.736,exp_sofc_final,,2025.2.3,None,2026-03-29 19h28.32.062327 +0200,
,71,0,71,,,,None,None,,,,,,,,,,,,,71,0,71,0,1061.3844660839968,,,,,,,,,,,,,,,clips/clip_wurst_01_nosub_0.mp4,audios/silence.mp3,visual,[],None,None,,,,,,100,A,2026-03-29_19h28.30.736,exp_sofc_final,,2025.2.3,None,2026-03-29 19h28.32.062327 +0200,
,72,0,72,,,,None,None,,,,,,,,,,,,,72,0,72,0,1072.0958115419999,,,,,,,,,,,,,,,clips/clip_holo_13_sub_1.mp4,audios/clip_holo_13_sub_1.mp3,audiovisual,"[5.597987499000737, 6.6251457079997635]",None,None,,,,,,100,A,2026-03-29_19h28.30.736,exp_sofc_final,,2025.2.3,None,2026-03-29 19h28.32.062327 +0200,
,73,0,73,,,,None,None,,,,,,,,,,,,,73,0,73,0,1084.686480958997,,,,,,,,,,,,,,,clips/clip_hund_04_nosub_0.mp4,audios/silence.mp3,visual,[4.604705958001432],None,None,,,,,,100,A,2026-03-29_19h28.30.736,exp_sofc_final,,2025.2.3,None,2026-03-29 19h28.32.062327 +0200,
,74,0,74,,,,None,None,,,,,,,,,,,,,74,0,74,0,1094.9899028340005,,,,,,,,,,,,,,,clips/clip_weißt_06_nosub_0.mp4,audios/silence.mp3,visual,[5.674031374997867],None,None,,,,,,100,A,2026-03-29_19h28.30.736,exp_sofc_final,,2025.2.3,None,2026-03-29 19h28.32.062327 +0200,
,75,0,75,,,,None,None,,,,,,,,,,,,,75,0,75,0,1106.074482750002,,,,,,,,,,,,,,,clips/clip_holo_14_nosub_0.mp4,audios/silence.mp3,visual,[],None,None,,,,,,100,A,2026-03-29_19h28.30.736,exp_sofc_final,,2025.2.3,None,2026-03-29 19h28.32.062327 +0200,
,76,0,76,,,,None,None,,,,,,,,,,,,,76,0,76,0,1116.8922505840019,,,,,,,,,,,,,,,clips/clip_hund_18_nosub_1.mp4,audios/clip_hund_18_nosub_1.mp3,audiovisual,[7.037600250005198],None,None,,,,,,100,A,2026-03-29_19h28.30.736,exp_sofc_final,,2025.2.3,None,2026-03-29 19h28.32.062327 +0200,
,77,0,77,,,,None,None,,,,,,,,,,,,,77,0,77,0,1127.6848180419984,,,,,,,,,,,,,,,clips/clip_holo_19_nosub_1.mp4,audios/clip_holo_19_nosub_1.mp3,audiovisual,[6.554123708003317],None,None,,,,,,100,A,2026-03-29_19h28.30.736,exp_sofc_final,,2025.2.3,None,2026-03-29 19h28.32.062327 +0200,
,78,0,78,,,,4,None,2.789957916997082,None,,,,,,,,,,,78,0,78,0,1138.483737417002,,,,,,,,,,,,,,,clips/clip_hund_29_nosub_0.mp4,audios/clip_hund_29_nosub_0.mp3,audiovisual,[10.49370679200365],4,None,3,2.789957916997082,None,,,100,A,2026-03-29_19h28.30.736,exp_sofc_final,,2025.2.3,None,2026-03-29 19h28.32.062327 +0200,
,79,0,79,,,,None,None,,,,,,,,,,,,,79,0,79,0,1153.4920965420024,,,,,,,,,,,,,,,clips/clip_wurst_23_nosub_2.mp4,audios/silence.mp3,visual,"[5.364540665999812, 8.562408540994511]",None,None,,,,,,100,A,2026-03-29_19h28.30.736,exp_sofc_final,,2025.2.3,None,2026-03-29 19h28.32.062327 +0200,
,80,0,80,,,,None,None,,,,,,,,,,,,,80,0,80,0,1164.775036250001,,,,,,,,,,,,,,,clips/clip_holo_06_nosub_2.mp4,audios/silence.mp3,visual,"[4.931757041995297, 8.849881624999398]",None,None,,,,,,100,A,2026-03-29_19h28.30.736,exp_sofc_final,,2025.2.3,None,2026-03-29 19h28.32.062327 +0200,
,81,0,81,,,,None,None,,,,,,,,,,,,,81,0,81,0,1175.312875249998,,,,,,,,,,,,,,,clips/clip_weißt_11_sub_0.mp4,audios/clip_weißt_11_sub_0.mp3,audiovisual,[],None,None,,,,,,100,A,2026-03-29_19h28.30.736,exp_sofc_final,,2025.2.3,None,2026-03-29 19h28.32.062327 +0200,
,82,0,82,,,,None,None,,,,,,,,,,,,,82,0,82,0,1186.1206271249976,,,,,,,,,,,,,,,clips/clip_wurst_30_sub_1.mp4,audios/clip_wurst_30_sub_1.mp3,audiovisual,[],None,None,,,,,,100,A,2026-03-29_19h28.30.736,exp_sofc_final,,2025.2.3,None,2026-03-29 19h28.32.062327 +0200,
,83,0,83,,,,None,None,,,,,,,,,,,,,83,0,83,0,1196.939671209002,,,,,,,,,,,,,,,clips/clip_holo_12_sub_1.mp4,audios/silence.mp3,visual,[8.623973540998122],None,None,,,,,,100,A,2026-03-29_19h28.30.736,exp_sofc_final,,2025.2.3,None,2026-03-29 19h28.32.062327 +0200,
,84,0,84,,,,None,None,,,,,,,,,,,,,84,0,84,0,1207.752829500001,,,,,,,,,,,,,,,clips/clip_hund_05_nosub_0.mp4,audios/clip_hund_05_nosub_0.mp3,audiovisual,[4.165594791003969],None,None,,,,,,100,A,2026-03-29_19h28.30.736,exp_sofc_final,,2025.2.3,None,2026-03-29 19h28.32.062327 +0200,
,85,0,85,,,,None,None,,,,,,,,,,,,,85,0,85,0,1219.522867749998,,,,,,,,,,,,,,,clips/clip_wurst_31_nosub_1.mp4,audios/silence.mp3,visual,[],None,None,,,,,,100,A,2026-03-29_19h28.30.736,exp_sofc_final,,2025.2.3,None,2026-03-29 19h28.32.062327 +0200,
,86,0,86,,,,None,None,,,,,,,,,,,,,86,0,86,0,1231.320374791998,,,,,,,,,,,,,,,clips/clip_claude_26_nosub_0.mp4,audios/clip_claude_26_nosub_0.mp3,audiovisual,[4.315946457994869],None,None,,,,,,100,A,2026-03-29_19h28.30.736,exp_sofc_final,,2025.2.3,None,2026-03-29 19h28.32.062327 +0200,
,87,0,87,,,,None,None,,,,,,,,,,,,,87,0,87,0,1243.0070612499985,,,,,,,,,,,,,,,clips/clip_hund_35_nosub_0.mp4,audios/clip_hund_35_nosub_0.mp3,audiovisual,[],None,None,,,,,,100,A,2026-03-29_19h28.30.736,exp_sofc_final,,2025.2.3,None,2026-03-29 19h28.32.062327 +0200,
,88,0,88,,,,None,None,,,,,,,,,,,,,88,0,88,0,1254.198667042001,,,,,,,,,,,,,,,clips/clip_dampf_06_nosub_2.mp4,audios/clip_dampf_06_nosub_2.mp3,audiovisual,[],None,None,,,,,,100,A,2026-03-29_19h28.30.736,exp_sofc_final,,2025.2.3,None,2026-03-29 19h28.32.062327 +0200,
,89,0,89,,,,None,None,,,,,,,,,,,,,89,0,89,0,1263.9869994589972,,,,,,,,,,,,,,,clips/clip_wurst_19_nosub_0.mp4,audios/silence.mp3,visual,[],None,None,,,,,,100,A,2026-03-29_19h28.30.736,exp_sofc_final,,2025.2.3,None,2026-03-29 19h28.32.062327 +0200,
,90,0,90,,,,None,None,,,,,,,,,,,,,90,0,90,0,1275.7871617089986,,,,,,,,,,,,,,,clips/clip_claude_03_sub_1.mp4,audios/silence.mp3,visual,[5.270173165998131],None,None,,,,,,100,A,2026-03-29_19h28.30.736,exp_sofc_final,,2025.2.3,None,2026-03-29 19h28.32.062327 +0200,
,91,0,91,,,,None,None,,,,,,,,,,,,,91,0,91,0,1288.0740319999968,,,,,,,,,,,,,,,clips/clip_weißt_29_sub_1.mp4,audios/silence.mp3,visual,[6.89516816700052],None,None,,,,,,100,A,2026-03-29_19h28.30.736,exp_sofc_final,,2025.2.3,None,2026-03-29 19h28.32.062327 +0200,
,92,0,92,,,,None,None,,,,,,,,,,,,,92,0,92,0,1300.4531542920013,,,,,,,,,,,,,,,clips/clip_wurst_10_sub_2.mp4,audios/clip_wurst_10_sub_2.mp3,audiovisual,"[4.818019957994693, 7.337188957993931]",None,None,,,,,,100,A,2026-03-29_19h28.30.736,exp_sofc_final,,2025.2.3,None,2026-03-29 19h28.32.062327 +0200,
,93,0,93,,,,3,None,7.452028958003211,None,,,,,,,,,,,93,0,93,0,1310.0141155419988,,,,,,,,,,,,,,,clips/clip_weißt_27_nosub_1.mp4,audios/silence.mp3,visual,[8.189164374001848],3,None,4,7.452028958003211,None,,,100,A,2026-03-29_19h28.30.736,exp_sofc_final,,2025.2.3,None,2026-03-29 19h28.32.062327 +0200,
,94,0,94,,,,None,None,,,,,,,,,,,,,94,0,94,0,1328.3586718340011,,,,,,,,,,,,,,,clips/clip_wurst_05_sub_0.mp4,audios/clip_wurst_05_sub_0.mp3,audiovisual,[],None,None,,,,,,100,A,2026-03-29_19h28.30.736,exp_sofc_final,,2025.2.3,None,2026-03-29 19h28.32.062327 +0200,
,95,0,95,,,,None,None,,,,,,,,,,,,,95,0,95,0,1337.783512916998,,,,,,,,,,,,,,,clips/clip_weißt_28_nosub_1.mp4,audios/clip_weißt_28_nosub_1.mp3,audiovisual,"[2.2476879579990054, 6.841563624002447]",None,None,,,,,,100,A,2026-03-29_19h28.30.736,exp_sofc_final,,2025.2.3,None,2026-03-29 19h28.32.062327 +0200,
,96,0,96,,,,None,None,,,,,,,,,,,,,96,0,96,0,1348.759630667002,,,,,,,,,,,,,,,clips/clip_lied_03_nosub_1.mp4,audios/clip_lied_03_nosub_1.mp3,audiovisual,[4.465841083001578],None,None,,,,,,100,A,2026-03-29_19h28.30.736,exp_sofc_final,,2025.2.3,None,2026-03-29 19h28.32.062327 +0200,
,97,0,97,,,,None,None,,,,,,,,,,,,,97,0,97,0,1360.066597334,,,,,,,,,,,,,,,clips/clip_claude_20_sub_1.mp4,audios/clip_claude_20_sub_1.mp3,audiovisual,[6.629518958005065],None,None,,,,,,100,A,2026-03-29_19h28.30.736,exp_sofc_final,,2025.2.3,None,2026-03-29 19h28.32.062327 +0200,
,98,0,98,,,,None,None,,,,,,,,,,,,,98,0,98,0,1372.8571197499987,,,,,,,,,,,,,,,clips/clip_weißt_26_sub_1.mp4,audios/clip_weißt_26_sub_1.mp3,audiovisual,[7.403453750004701],None,None,,,,,,100,A,2026-03-29_19h28.30.736,exp_sofc_final,,2025.2.3,None,2026-03-29 19h28.32.062327 +0200,
,99,0,99,,,,None,None,,,,,,,,,,,,,99,0,99,0,1383.8369524169975,,,,,,,,,,,,,,,clips/clip_dampf_04_sub_1.mp4,audios/clip_dampf_04_sub_1.mp3,audiovisual,[5.034901249993709],None,None,,,,,,100,A,2026-03-29_19h28.30.736,exp_sofc_final,,2025.2.3,None,2026-03-29 19h28.32.062327 +0200,
,100,0,100,,,,None,None,,,,,,,,,,,,,100,0,100,0,1394.2267462090022,,,,,,,,,,,,,,,clips/clip_herz_14_sub_0.mp4,audios/clip_herz_14_sub_0.mp3,audiovisual,[],None,None,,,,,,100,A,2026-03-29_19h28.30.736,exp_sofc_final,,2025.2.3,None,2026-03-29 19h28.32.062327 +0200,
,101,0,101,,,,None,None,,,,,,,,,,,,,101,0,101,0,1405.504829833997,,,,,,,,,,,,,,,clips/clip_holo_07_nosub_0.mp4,audios/clip_holo_07_nosub_0.mp3,audiovisual,[],None,None,,,,,,100,A,2026-03-29_19h28.30.736,exp_sofc_final,,2025.2.3,None,2026-03-29 19h28.32.062327 +0200,
,102,0,102,,,,None,None,,,,,,,,,,,,,102,0,102,0,1415.6888818750012,,,,,,,,,,,,,,,clips/clip_weißt_13_nosub_0.mp4,audios/clip_weißt_13_nosub_0.mp3,audiovisual,[],None,None,,,,,,100,A,2026-03-29_19h28.30.736,exp_sofc_final,,2025.2.3,None,2026-03-29 19h28.32.062327 +0200,
,103,0,103,,,,2,None,3.342961999005638,None,,,,,,,,,,,103,0,103,0,1427.2846078750008,,,,,,,,,,,,,,,clips/clip_claude_07_sub_0.mp4,audios/silence.mp3,visual,[0.0006079999948269688],2,None,2,3.342961999005638,None,,,100,A,2026-03-29_19h28.30.736,exp_sofc_final,,2025.2.3,None,2026-03-29 19h28.32.062327 +0200,
,104,0,104,,,,None,None,,,,,,,,,,,,,104,0,104,0,1441.449149084001,,,,,,,,,,,,,,,clips/clip_weißt_16_nosub_0.mp4,audios/silence.mp3,visual,[],None,None,,,,,,100,A,2026-03-29_19h28.30.736,exp_sofc_final,,2025.2.3,None,2026-03-29 19h28.32.062327 +0200,
,105,0,105,,,,2,None,2.438191124005243,None,,,,,,,,,,,105,0,105,0,1452.741968125003,,,,,,,,,,,,,,,clips/clip_claude_19_sub_0.mp4,audios/silence.mp3,visual,[],2,None,2,2.438191124005243,None,,,100,A,2026-03-29_19h28.30.736,exp_sofc_final,,2025.2.3,None,2026-03-29 19h28.32.062327 +0200,
,106,0,106,,,,None,None,,,,,,,,,,,,,106,0,106,0,1466.4611147090036,,,,,,,,,,,,,,,clips/clip_claude_25_nosub_0.mp4,audios/silence.mp3,visual,[],None,None,,,,,,100,A,2026-03-29_19h28.30.736,exp_sofc_final,,2025.2.3,None,2026-03-29 19h28.32.062327 +0200,
,107,0,107,,,,None,None,,,,,,,,,,,,,107,0,107,0,1477.4104375419993,,,,,,,,,,,,,,,clips/clip_holo_24_sub_2.mp4,audios/silence.mp3,visual,"[7.023255166997842, 9.673439958001836]",None,None,,,,,,100,A,2026-03-29_19h28.30.736,exp_sofc_final,,2025.2.3,None,2026-03-29 19h28.32.062327 +0200,
,108,0,108,,,,3,None,2.408071457997721,None,,,,,,,,,,,108,0,108,0,1488.013104042002,,,,,,,,,,,,,,,clips/clip_claude_18_nosub_0.mp4,audios/clip_claude_18_nosub_0.mp3,audiovisual,[],3,None,3,2.408071457997721,None,,,100,A,2026-03-29_19h28.30.736,exp_sofc_final,,2025.2.3,None,2026-03-29 19h28.32.062327 +0200,
,109,0,109,,,,None,None,,,,,,,,,,,,,109,0,109,0,1500.2358020000029,,,,,,,,,,,,,,,clips/clip_hund_16_sub_1.mp4,audios/clip_hund_16_sub_1.mp3,audiovisual,[],None,None,,,,,,100,A,2026-03-29_19h28.30.736,exp_sofc_final,,2025.2.3,None,2026-03-29 19h28.32.062327 +0200,
,110,0,110,,,,2,None,3.583693874999881,None,,,,,,,,,,,110,0,110,0,1511.8291599590011,,,,,,,,,,,,,,,clips/clip_lied_11_nosub_1.mp4,audios/clip_lied_11_nosub_1.mp3,audiovisual,[8.65560120799637],2,None,2,3.583693874999881,None,,,100,A,2026-03-29_19h28.30.736,exp_sofc_final,,2025.2.3,None,2026-03-29 19h28.32.062327 +0200,
,111,0,111,,,,None,None,,,,,,,,,,,,,111,0,111,0,1527.305062583997,,,,,,,,,,,,,,,clips/clip_dampf_05_nosub_2.mp4,audios/silence.mp3,visual,"[3.604151625004306, 8.459131000003254]",None,None,,,,,,100,A,2026-03-29_19h28.30.736,exp_sofc_final,,2025.2.3,None,2026-03-29 19h28.32.062327 +0200,
,112,0,112,,,,None,None,,,,,,,,,,,,,112,0,112,0,1536.7737692500014,,,,,,,,,,,,,,,clips/clip_wurst_32_nosub_1.mp4,audios/clip_wurst_32_nosub_1.mp3,audiovisual,[7.356488958001137],None,None,,,,,,100,A,2026-03-29_19h28.30.736,exp_sofc_final,,2025.2.3,None,2026-03-29 19h28.32.062327 +0200,
,113,0,113,,,,4,None,3.415946833003545,None,,,,,,,,,,,113,0,113,0,1548.1701945840032,,,,,,,,,,,,,,,clips/clip_hund_19_sub_0.mp4,audios/silence.mp3,visual,[],4,None,4,3.415946833003545,None,,,100,A,2026-03-29_19h28.30.736,exp_sofc_final,,2025.2.3,None,2026-03-29 19h28.32.062327 +0200,
,114,0,114,,,,1,None,3.234028248996765,None,,,,,,,,,,,114,0,114,0,1563.7388496249987,,,,,,,,,,,,,,,clips/clip_lied_04_sub_0.mp4,audios/silence.mp3,visual,[],1,None,1,3.234028248996765,None,,,100,A,2026-03-29_19h28.30.736,exp_sofc_final,,2025.2.3,None,2026-03-29 19h28.32.062327 +0200,
,115,0,115,,,,None,None,,,,,,,,,,,,,115,0,115,0,1578.7569921670001,,,,,,,,,,,,,,,clips/clip_hund_09_nosub_2.mp4,audios/silence.mp3,visual,"[5.554534417002287, 10.42816154200409]",None,None,,,,,,100,A,2026-03-29_19h28.30.736,exp_sofc_final,,2025.2.3,None,2026-03-29 19h28.32.062327 +0200,
,116,0,116,,,,None,None,,,,,,,,,,,,,116,0,116,0,1591.3642783339965,,,,,,,,,,,,,,,clips/clip_claude_02_nosub_1.mp4,audios/clip_claude_02_nosub_1.mp3,audiovisual,[5.7922667500024545],None,None,,,,,,100,A,2026-03-29_19h28.30.736,exp_sofc_final,,2025.2.3,None,2026-03-29 19h28.32.062327 +0200,
,117,0,117,,,,None,None,,,,,,,,,,,,,117,0,117,0,1601.9154760840029,,,,,,,,,,,,,,,clips/clip_holo_10_nosub_1.mp4,audios/silence.mp3,visual,[6.2339483329997165],None,None,,,,,,100,A,2026-03-29_19h28.30.736,exp_sofc_final,,2025.2.3,None,2026-03-29 19h28.32.062327 +0200,
,118,0,118,,,,None,None,,,,,,,,,,,,,118,0,118,0,1612.6547353339993,,,,,,,,,,,,,,,clips/clip_herz_09_sub_0.mp4,audios/silence.mp3,visual,[],None,None,,,,,,100,A,2026-03-29_19h28.30.736,exp_sofc_final,,2025.2.3,None,2026-03-29 19h28.32.062327 +0200,
,119,0,119,,,,4,space,2.6886517080056365,None,5.530436166001891,None,,,,,,,,,119,0,119,0,1624.949890374999,,,,,,,,,,,,,,,clips/clip_lied_12_sub_0.mp4,audios/silence.mp3,visual,[],4,space,4,2.6886517080056365,None,5.530436166001891,None,100,A,2026-03-29_19h28.30.736,exp_sofc_final,,2025.2.3,None,2026-03-29 19h28.32.062327 +0200,
,120,0,120,,,,None,None,,,,,,,,,,,,,120,0,120,0,1643.0382640419994,,,,,,,,,,,,,,,clips/clip_herz_05_sub_0.mp4,audios/silence.mp3,visual,"[0.16184779099421576, 5.935721873996954, 7.579682790994411]",None,None,,,,,,100,A,2026-03-29_19h28.30.736,exp_sofc_final,,2025.2.3,None,2026-03-29 19h28.32.062327 +0200,
,121,0,121,,,,None,None,,,,,,,,,,,,,121,0,121,0,1654.120397999999,,,,,,,,,,,,,,,clips/clip_claude_21_nosub_1.mp4,audios/silence.mp3,visual,[9.780132790998323],None,None,,,,,,100,A,2026-03-29_19h28.30.736,exp_sofc_final,,2025.2.3,None,2026-03-29 19h28.32.062327 +0200,
,122,0,122,,,,None,None,,,,,,,,,,,,,122,0,122,0,1667.1686233750006,,,,,,,,,,,,,,,clips/clip_herz_02_sub_0.mp4,audios/clip_herz_02_sub_0.mp3,audiovisual,[9.123623957995733],None,None,,,,,,100,A,2026-03-29_19h28.30.736,exp_sofc_final,,2025.2.3,None,2026-03-29 19h28.32.062327 +0200,
,123,0,123,,,,None,None,,,,,,,,,,,,,123,0,123,0,1680.3073340420015,,,,,,,,,,,,,,,clips/clip_claude_05_nosub_2.mp4,audios/silence.mp3,visual,[4.603591708000749],None,None,,,,,,100,A,2026-03-29_19h28.30.736,exp_sofc_final,,2025.2.3,None,2026-03-29 19h28.32.062327 +0200,
,124,0,124,,,,None,None,,,,,,,,,,,,,124,0,124,0,1692.3758651669996,,,,,,,,,,,,,,,clips/clip_wurst_07_nosub_0.mp4,audios/clip_wurst_07_nosub_0.mp3,audiovisual,[],None,None,,,,,,100,A,2026-03-29_19h28.30.736,exp_sofc_final,,2025.2.3,None,2026-03-29 19h28.32.062327 +0200,
,125,0,125,,,,None,None,,,,,,,,,,,,,125,0,125,0,1703.1552024589982,,,,,,,,,,,,,,,clips/clip_herz_01_sub_1.mp4,audios/silence.mp3,visual,[6.530819291001535],None,None,,,,,,100,A,2026-03-29_19h28.30.736,exp_sofc_final,,2025.2.3,None,2026-03-29 19h28.32.062327 +0200,
,126,0,126,,,,None,None,,,,,,,,,,,,,126,0,126,0,1714.5350263340006,,,,,,,,,,,,,,,clips/clip_dampf_03_sub_1.mp4,audios/silence.mp3,visual,[7.87947904199973],None,None,,,,,,100,A,2026-03-29_19h28.30.736,exp_sofc_final,,2025.2.3,None,2026-03-29 19h28.32.062327 +0200,
,127,0,127,,,,None,None,,,,,,,,,,,,,127,0,127,0,1722.8993769590015,,,,,,,,,,,,,,,clips/clip_wurst_04_sub_2.mp4,audios/silence.mp3,visual,"[4.240291166999668, 7.079446250005276]",None,None,,,,,,100,A,2026-03-29_19h28.30.736,exp_sofc_final,,2025.2.3,None,2026-03-29 19h28.32.062327 +0200,
,128,0,128,,,,None,None,,,,,,,,,,,,,128,0,128,0,1735.2972093749995,,,,,,,,,,,,,,,clips/clip_lied_15_nosub_2.mp4,audios/silence.mp3,visual,"[3.2668779579980765, 6.930974916002015]",None,None,,,,,,100,A,2026-03-29_19h28.30.736,exp_sofc_final,,2025.2.3,None,2026-03-29 19h28.32.062327 +0200,
,129,0,129,,,,None,None,,,,,,,,,,,,,129,0,129,0,1743.3645072090003,,,,,,,,,,,,,,,clips/clip_wurst_33_sub_0.mp4,audios/silence.mp3,visual,[],None,None,,,,,,100,A,2026-03-29_19h28.30.736,exp_sofc_final,,2025.2.3,None,2026-03-29 19h28.32.062327 +0200,
,130,0,130,,,,None,None,,,,,,,,,,,,,130,0,130,0,1753.8563203750018,,,,,,,,,,,,,,,clips/clip_holo_02_nosub_2.mp4,audios/silence.mp3,visual,"[4.002006832997722, 7.9970874580030795]",None,None,,,,,,100,A,2026-03-29_19h28.30.736,exp_sofc_final,,2025.2.3,None,2026-03-29 19h28.32.062327 +0200,
,131,0,131,,,,None,None,,,,,,,,,,,,,131,0,131,0,1765.8220887920033,,,,,,,,,,,,,,,clips/clip_weißt_08_sub_0.mp4,audios/silence.mp3,visual,[7.759098540998821],None,None,,,,,,100,A,2026-03-29_19h28.30.736,exp_sofc_final,,2025.2.3,None,2026-03-29 19h28.32.062327 +0200,
,132,0,132,,,,None,None,,,,,,,,,,,,,132,0,132,0,1776.8187877090022,,,,,,,,,,,,,,,clips/clip_wurst_15_nosub_2.mp4,audios/silence.mp3,visual,"[5.360065708002367, 7.95326654100063]",None,None,,,,,,100,A,2026-03-29_19h28.30.736,exp_sofc_final,,2025.2.3,None,2026-03-29 19h28.32.062327 +0200,
,133,0,133,,,,None,None,,,,,,,,,,,,,133,0,133,0,1787.0309476670009,,,,,,,,,,,,,,,clips/clip_lied_14_sub_0.mp4,audios/clip_lied_14_sub_0.mp3,audiovisual,[],None,None,,,,,,100,A,2026-03-29_19h28.30.736,exp_sofc_final,,2025.2.3,None,2026-03-29 19h28.32.062327 +0200,
,134,0,134,,,,None,None,,,,,,,,,,,,,134,0,134,0,1797.491008625002,,,,,,,,,,,,,,,clips/clip_claude_16_sub_1.mp4,audios/clip_claude_16_sub_1.mp3,audiovisual,[9.088449957998819],None,None,,,,,,100,A,2026-03-29_19h28.30.736,exp_sofc_final,,2025.2.3,None,2026-03-29 19h28.32.062327 +0200,
,135,0,135,,,,3,None,2.8441266660011024,None,,,,,,,,,,,135,0,135,0,1809.5236084170028,,,,,,,,,,,,,,,clips/clip_weißt_12_nosub_1.mp4,audios/silence.mp3,visual,[9.024670082995726],3,None,3,2.8441266660011024,None,,,100,A,2026-03-29_19h28.30.736,exp_sofc_final,,2025.2.3,None,2026-03-29 19h28.32.062327 +0200,
,136,0,136,,,,None,None,,,,,,,,,,,,,136,0,136,0,1825.1166992500002,,,,,,,,,,,,,,,clips/clip_hund_24_sub_1.mp4,audios/clip_hund_24_sub_1.mp3,audiovisual,[8.057150374996127],None,None,,,,,,100,A,2026-03-29_19h28.30.736,exp_sofc_final,,2025.2.3,None,2026-03-29 19h28.32.062327 +0200,
,137,0,137,,,,None,None,,,,,,,,,,,,,137,0,137,0,1837.8834595840017,,,,,,,,,,,,,,,clips/clip_wurst_12_nosub_0.mp4,audios/clip_wurst_12_nosub_0.mp3,audiovisual,[],None,None,,,,,,100,A,2026-03-29_19h28.30.736,exp_sofc_final,,2025.2.3,None,2026-03-29 19h28.32.062327 +0200,
,138,0,138,,,,None,None,,,,,,,,,,,,,138,0,138,0,1847.3001992920035,,,,,,,,,,,,,,,clips/clip_weißt_23_nosub_1.mp4,audios/clip_weißt_23_nosub_1.mp3,audiovisual,"[0.32212787499884143, 8.391766374996223]",None,None,,,,,,100,A,2026-03-29_19h28.30.736,exp_sofc_final,,2025.2.3,None,2026-03-29 19h28.32.062327 +0200,
,139,0,139,,,,None,None,,,,,,,,,,,,,139,0,139,0,1859.4886703750017,,,,,,,,,,,,,,,clips/clip_herz_10_sub_0.mp4,audios/clip_herz_10_sub_0.mp3,audiovisual,[],None,None,,,,,,100,A,2026-03-29_19h28.30.736,exp_sofc_final,,2025.2.3,None,2026-03-29 19h28.32.062327 +0200,
,140,0,140,,,,None,None,,,,,,,,,,,,,140,0,140,0,1870.2966757090035,,,,,,,,,,,,,,,clips/clip_wurst_20_nosub_0.mp4,audios/clip_wurst_20_nosub_0.mp3,audiovisual,[],None,None,,,,,,100,A,2026-03-29_19h28.30.736,exp_sofc_final,,2025.2.3,None,2026-03-29 19h28.32.062327 +0200,
,141,0,141,,,,1,None,2.740394373999152,None,,,,,,,,,,,141,0,141,0,1881.0836053340026,,,,,,,,,,,,,,,clips/clip_lied_09_sub_1.mp4,audios/clip_lied_09_sub_1.mp3,audiovisual,[],1,None,1,2.740394373999152,None,,,100,A,2026-03-29_19h28.30.736,exp_sofc_final,,2025.2.3,None,2026-03-29 19h28.32.062327 +0200,
,142,0,142,,,,None,None,,,,,,,,,,,,,142,0,142,0,1895.0537911249994,,,,,,,,,,,,,,,clips/clip_weißt_03_sub_0.mp4,audios/silence.mp3,visual,[],None,None,,,,,,100,A,2026-03-29_19h28.30.736,exp_sofc_final,,2025.2.3,None,2026-03-29 19h28.32.062327 +0200,
,143,0,143,,,,None,None,,,,,,,,,,,,,143,0,143,0,1907.8209461250008,,,,,,,,,,,,,,,clips/clip_wurst_08_sub_1.mp4,audios/silence.mp3,visual,[6.612962082996091],None,None,,,,,,100,A,2026-03-29_19h28.30.736,exp_sofc_final,,2025.2.3,None,2026-03-29 19h28.32.062327 +0200,
,144,0,144,,,,None,None,,,,,,,,,,,,,144,0,144,0,1917.1290119999976,,,,,,,,,,,,,,,clips/clip_weißt_30_sub_2.mp4,audios/clip_weißt_30_sub_2.mp3,audiovisual,"[3.1781543739998597, 11.994758166001702]",None,None,,,,,,100,A,2026-03-29_19h28.30.736,exp_sofc_final,,2025.2.3,None,2026-03-29 19h28.32.062327 +0200,
,145,0,145,,,,None,None,,,,,,,,,,,,,145,0,145,0,1929.9059886670002,,,,,,,,,,,,,,,clips/clip_lied_02_nosub_2.mp4,audios/silence.mp3,visual,"[3.948647124998388, 9.41167129099631]",None,None,,,,,,100,A,2026-03-29_19h28.30.736,exp_sofc_final,,2025.2.3,None,2026-03-29 19h28.32.062327 +0200,
,146,0,146,,,,None,None,,,,,,,,,,,,,146,0,146,0,1941.7105411250013,,,,,,,,,,,,,,,clips/clip_weißt_19_sub_1.mp4,audios/silence.mp3,visual,[],None,None,,,,,,100,A,2026-03-29_19h28.30.736,exp_sofc_final,,2025.2.3,None,2026-03-29 19h28.32.062327 +0200,
,147,0,147,,,,3,None,2.4756082500025514,None,,,,,,,,,,,147,0,147,0,1952.506667458998,,,,,,,,,,,,,,,clips/clip_claude_29_sub_0.mp4,audios/clip_claude_29_sub_0.mp3,audiovisual,[],3,None,3,2.4756082500025514,None,,,100,A,2026-03-29_19h28.30.736,exp_sofc_final,,2025.2.3,None,2026-03-29 19h28.32.062327 +0200,
,148,0,148,,,,None,None,,,,,,,,,,,,,148,0,148,0,1965.8211057500012,,,,,,,,,,,,,,,clips/clip_hund_22_nosub_1.mp4,audios/clip_hund_22_nosub_1.mp3,audiovisual,[8.741583998998976],None,None,,,,,,100,A,2026-03-29_19h28.30.736,exp_sofc_final,,2025.2.3,None,2026-03-29 19h28.32.062327 +0200,
,149,0,149,,,,None,None,,,,,,,,,,,,,149,0,149,0,1976.5932275840023,,,,,,,,,,,,,,,clips/clip_holo_08_sub_2.mp4,audios/silence.mp3,visual,"[4.524526291002985, 9.172680748997664]",None,None,,,,,,100,A,2026-03-29_19h28.30.736,exp_sofc_final,,2025.2.3,None,2026-03-29 19h28.32.062327 +0200,
,150,0,150,,,,2,None,2.526677333000407,None,,,,,,,,,,,150,0,150,0,1988.1707768749984,,,,,,,,,,,,,,,clips/clip_claude_11_sub_0.mp4,audios/silence.mp3,visual,[],2,None,2,2.526677333000407,None,,,100,A,2026-03-29_19h28.30.736,exp_sofc_final,,2025.2.3,None,2026-03-29 19h28.32.062327 +0200,
,151,0,151,,,,None,None,,,,,,,,,,,,,151,0,151,0,2001.539811542003,,,,,,,,,,,,,,,clips/clip_claude_14_nosub_0.mp4,audios/clip_claude_14_nosub_0.mp3,audiovisual,"[6.38178674899973, 8.93877987399901]",None,None,,,,,,100,A,2026-03-29_19h28.30.736,exp_sofc_final,,2025.2.3,None,2026-03-29 19h28.32.062327 +0200,
,152,0,152,,,,2,None,2.410850250002113,None,,,,,,,,,,,152,0,152,0,2013.3854259590007,,,,,,,,,,,,,,,clips/clip_holo_11_nosub_2.mp4,audios/clip_holo_11_nosub_2.mp3,audiovisual,"[5.484557957999641, 8.972662290994776]",2,None,3,2.410850250002113,None,,,100,A,2026-03-29_19h28.30.736,exp_sofc_final,,2025.2.3,None,2026-03-29 19h28.32.062327 +0200,
,153,0,153,,,,None,None,,,,,,,,,,,,,153,0,153,0,2026.2924860420026,,,,,,,,,,,,,,,clips/clip_weißt_17_nosub_0.mp4,audios/clip_weißt_17_nosub_0.mp3,audiovisual,[],None,None,,,,,,100,A,2026-03-29_19h28.30.736,exp_sofc_final,,2025.2.3,None,2026-03-29 19h28.32.062327 +0200,
,154,0,154,,,,None,None,,,,,,,,,,,,,154,0,154,0,2038.5599322499984,,,,,,,,,,,,,,,clips/clip_wurst_16_nosub_0.mp4,audios/clip_wurst_16_nosub_0.mp3,audiovisual,[],None,None,,,,,,100,A,2026-03-29_19h28.30.736,exp_sofc_final,,2025.2.3,None,2026-03-29 19h28.32.062327 +0200,
,155,0,155,,,,None,None,,,,,,,,,,,,,155,0,155,0,2049.3358759589973,,,,,,,,,,,,,,,clips/clip_lied_10_nosub_1.mp4,audios/silence.mp3,visual,[4.74015466599667],None,None,,,,,,100,A,2026-03-29_19h28.30.736,exp_sofc_final,,2025.2.3,None,2026-03-29 19h28.32.062327 +0200,
,156,0,156,,,,None,None,,,,,,,,,,,,,156,0,156,0,2061.6276198339983,,,,,,,,,,,,,,,clips/clip_herz_08_nosub_0.mp4,audios/clip_herz_08_nosub_0.mp3,audiovisual,"[5.2531296239976655, 9.457404498993128]",None,None,,,,,,100,A,2026-03-29_19h28.30.736,exp_sofc_final,,2025.2.3,None,2026-03-29 19h28.32.062327 +0200,
,157,0,157,,,,None,None,,,,,,,,,,,,,157,0,157,0,2074.445303542001,,,,,,,,,,,,,,,clips/clip_weißt_04_sub_0.mp4,audios/clip_weißt_04_sub_0.mp3,audiovisual,[],None,None,,,,,,100,A,2026-03-29_19h28.30.736,exp_sofc_final,,2025.2.3,None,2026-03-29 19h28.32.062327 +0200,
,158,0,158,,,,None,None,,,,,,,,,,,,,158,0,158,0,2085.3124934169973,,,,,,,,,,,,,,,clips/clip_weißt_02_nosub_0.mp4,audios/clip_weißt_02_nosub_0.mp3,audiovisual,[],None,None,,,,,,100,A,2026-03-29_19h28.30.736,exp_sofc_final,,2025.2.3,None,2026-03-29 19h28.32.062327 +0200,
,159,0,159,,,,None,None,,,,,,,,,,,,,159,0,159,0,2096.0802122090026,,,,,,,,,,,,,,,clips/clip_lied_08_sub_1.mp4,audios/silence.mp3,visual,[7.688672124997538],None,None,,,,,,100,A,2026-03-29_19h28.30.736,exp_sofc_final,,2025.2.3,None,2026-03-29 19h28.32.062327 +0200,
,160,0,160,,,,None,None,,,,,,,,,,,,,160,0,160,0,2105.952237958998,,,,,,,,,,,,,,,clips/clip_claude_01_nosub_2.mp4,audios/silence.mp3,visual,"[6.59348566600238, 8.472323250003683]",None,None,,,,,,100,A,2026-03-29_19h28.30.736,exp_sofc_final,,2025.2.3,None,2026-03-29 19h28.32.062327 +0200,
,161,0,161,,,,None,None,,,,,,,,,,,,,161,0,161,0,2117.683661959003,,,,,,,,,,,,,,,clips/clip_herz_03_nosub_2.mp4,audios/silence.mp3,visual,"[4.352098458002729, 11.357496165997873]",None,None,,,,,,100,A,2026-03-29_19h28.30.736,exp_sofc_final,,2025.2.3,None,2026-03-29 19h28.32.062327 +0200,
,162,0,162,,,,4,None,2.505537582997931,None,,,,,,,,,,,162,0,162,0,2130.879199959003,,,,,,,,,,,,,,,clips/clip_claude_06_nosub_1.mp4,audios/clip_claude_06_nosub_1.mp3,audiovisual,[4.008664083004987],4,None,4,2.505537582997931,None,,,100,A,2026-03-29_19h28.30.736,exp_sofc_final,,2025.2.3,None,2026-03-29 19h28.32.062327 +0200,
,163,0,163,,,,None,None,,,,,,,,,,,,,163,0,163,0,2146.758909875003,,,,,,,,,,,,,,,clips/clip_wurst_26_sub_1.mp4,audios/clip_wurst_26_sub_1.mp3,audiovisual,[10.16784033300064],None,None,,,,,,100,A,2026-03-29_19h28.30.736,exp_sofc_final,,2025.2.3,None,2026-03-29 19h28.32.062327 +0200,
,164,0,164,,,,None,None,,,,,,,,,,,,,164,0,164,0,2159.511988584003,,,,,,,,,,,,,,,clips/clip_hund_13_nosub_1.mp4,audios/silence.mp3,visual,[5.836929416000203],None,None,,,,,,100,A,2026-03-29_19h28.30.736,exp_sofc_final,,2025.2.3,None,2026-03-29 19h28.32.062327 +0200,
,165,0,165,,,,None,None,,,,,,,,,,,,,165,0,165,0,2172.050825667,,,,,,,,,,,,,,,clips/clip_herz_12_nosub_0.mp4,audios/clip_herz_12_nosub_0.mp3,audiovisual,[5.967469458002597],None,None,,,,,,100,A,2026-03-29_19h28.30.736,exp_sofc_final,,2025.2.3,None,2026-03-29 19h28.32.062327 +0200,
,166,0,166,,,,None,None,,,,,,,,,,,,,166,0,166,0,2181.9007980840033,,,,,,,,,,,,,,,clips/clip_hund_01_sub_0.mp4,audios/silence.mp3,visual,[],None,None,,,,,,100,A,2026-03-29_19h28.30.736,exp_sofc_final,,2025.2.3,None,2026-03-29 19h28.32.062327 +0200,
,167,0,167,,,,None,None,,,,,,,,,,,,,167,0,167,0,2193.4471624170037,,,,,,,,,,,,,,,clips/clip_hund_34_nosub_1.mp4,audios/silence.mp3,visual,[],None,None,,,,,,100,A,2026-03-29_19h28.30.736,exp_sofc_final,,2025.2.3,None,2026-03-29 19h28.32.062327 +0200,
,168,0,168,,,,None,None,,,,,,,,,,,,,168,0,168,0,2204.6447837919986,,,,,,,,,,,,,,,clips/clip_hund_36_sub_2.mp4,audios/silence.mp3,visual,"[2.7709109159986838, 5.866919624997536]",None,None,,,,,,100,A,2026-03-29_19h28.30.736,exp_sofc_final,,2025.2.3,None,2026-03-29 19h28.32.062327 +0200,
,169,0,169,,,,2,None,2.7006602920009755,None,,,,,,,,,,,169,0,169,0,2214.5854827500007,,,,,,,,,,,,,,,clips/clip_wurst_36_nosub_0.mp4,audios/clip_wurst_36_nosub_0.mp3,audiovisual,[],2,None,2,2.7006602920009755,None,,,100,A,2026-03-29_19h28.30.736,exp_sofc_final,,2025.2.3,None,2026-03-29 19h28.32.062327 +0200,
,170,0,170,,,,None,None,,,,,,,,,,,,,170,0,170,0,2227.938330709003,,,,,,,,,,,,,,,clips/clip_weißt_20_sub_1.mp4,audios/clip_weißt_20_sub_1.mp3,audiovisual,[7.916948000005505],None,None,,,,,,100,A,2026-03-29_19h28.30.736,exp_sofc_final,,2025.2.3,None,2026-03-29 19h28.32.062327 +0200,
,171,0,171,,,,3,None,2.255224790998909,None,,,,,,,,,,,171,0,171,0,2238.5038418339973,,,,,,,,,,,,,,,clips/clip_wurst_27_nosub_1.mp4,audios/silence.mp3,visual,[6.147499667000375],3,None,3,2.255224790998909,None,,,100,A,2026-03-29_19h28.30.736,exp_sofc_final,,2025.2.3,None,2026-03-29 19h28.32.062327 +0200,
,172,0,172,,,,None,None,,,,,,,,,,,,,172,0,172,0,2251.7570453750013,,,,,,,,,,,,,,,clips/clip_claude_13_nosub_0.mp4,audios/silence.mp3,visual,[],None,None,,,,,,100,A,2026-03-29_19h28.30.736,exp_sofc_final,,2025.2.3,None,2026-03-29 19h28.32.062327 +0200,
,173,0,173,,,,None,None,,,,,,,,,,,,,173,0,173,0,2261.7472583749986,,,,,,,,,,,,,,,clips/clip_claude_10_nosub_0.mp4,audios/clip_claude_10_nosub_0.mp3,audiovisual,[],None,None,,,,,,100,A,2026-03-29_19h28.30.736,exp_sofc_final,,2025.2.3,None,2026-03-29 19h28.32.062327 +0200,
,174,0,174,,,,None,None,,,,,,,,,,,,,174,0,174,0,2273.738891916997,,,,,,,,,,,,,,,clips/clip_holo_03_nosub_1.mp4,audios/clip_holo_03_nosub_1.mp3,audiovisual,[7.140454708001926],None,None,,,,,,100,A,2026-03-29_19h28.30.736,exp_sofc_final,,2025.2.3,None,2026-03-29 19h28.32.062327 +0200,
,175,0,175,,,,1,None,4.29413008299889,None,,,,,,,,,,,175,0,175,0,2284.0217649999977,,,,,,,,,,,,,,,clips/clip_weißt_25_sub_1.mp4,audios/silence.mp3,visual,"[5.138747874996625, 9.794872291000502]",1,None,1,4.29413008299889,None,,,100,A,2026-03-29_19h28.30.736,exp_sofc_final,,2025.2.3,None,2026-03-29 19h28.32.062327 +0200,
,176,0,176,,,,None,None,,,,,,,,,,,,,176,0,176,0,2301.1412171249976,,,,,,,,,,,,,,,clips/clip_hund_23_sub_1.mp4,audios/silence.mp3,visual,[],None,None,,,,,,100,A,2026-03-29_19h28.30.736,exp_sofc_final,,2025.2.3,None,2026-03-29 19h28.32.062327 +0200,
,177,0,177,,,,None,None,,,,,,,,,,,,,177,0,177,0,2312.822600624997,,,,,,,,,,,,,,,clips/clip_claude_12_sub_0.mp4,audios/clip_claude_12_sub_0.mp3,audiovisual,[],None,None,,,,,,100,A,2026-03-29_19h28.30.736,exp_sofc_final,,2025.2.3,None,2026-03-29 19h28.32.062327 +0200,
,178,0,178,,,,1,None,2.0747416669983068,None,,,,,,,,,,,178,0,178,0,2322.830530542,,,,,,,,,,,,,,,clips/clip_hund_14_nosub_2.mp4,audios/clip_hund_14_nosub_2.mp3,audiovisual,[5.856929165995098],1,None,1,2.0747416669983068,None,,,100,A,2026-03-29_19h28.30.736,exp_sofc_final,,2025.2.3,None,2026-03-29 19h28.32.062327 +0200,
,179,0,179,,,,None,None,,,,,,,,,,,,,179,0,179,0,2335.5934498749994,,,,,,,,,,,,,,,clips/clip_holo_05_sub_2.mp4,audios/clip_holo_05_sub_2.mp3,audiovisual,[7.086551375003182],None,None,,,,,,100,A,2026-03-29_19h28.30.736,exp_sofc_final,,2025.2.3,None,2026-03-29 19h28.32.062327 +0200,
,,,,,,,,,,,,,,,,,,,,,,,,,,,,,,,,,,,,,,,,,,,,,,,,,,,100,A,2026-03-29_19h28.30.736,exp_sofc_final,,2025.2.3,None,2026-03-29 19h28.32.062327 +0200,
