instruction_text,thisN,thisTrialN,thisRepN,prac_attention_resp.keys,prac_attention_resp.rt,prac_attention_resp.duration,exp_atttention_resp.keys,exp_pause_resp.keys,exp_atttention_resp.rt,exp_atttention_resp.duration,exp_pause_resp.rt,exp_pause_resp.duration,instruction_trial.thisRepN,instruction_trial.thisTrialN,instruction_trial.thisN,instruction_trial.thisIndex,practice_trials.thisRepN,practice_trials.thisTrialN,practice_trials.thisN,practice_trials.thisIndex,experiment_trials.thisRepN,experiment_trials.thisTrialN,experiment_trials.thisN,experiment_trials.thisIndex,thisRow.t,notes,assigned_ls_group,slider_informed_consent.response,Practice_clip_name,Practice_video_used,Practice_audio_used,Practice_modality,Practice_subtitles,Practice_attention_check,Practice_all_cut_rts,Practice_correct_key_required,practice_trials.prac_attention_resp.keys,practice_trials.prac_attention_resp.rt,practice_trials.prac_attention_resp.duration,video_used,audio_used,condition_modality,all_cut_rts,experiment_trials.exp_atttention_resp.keys,experiment_trials.exp_pause_resp.keys,correct_key_required,experiment_trials.exp_atttention_resp.rt,experiment_trials.exp_atttention_resp.duration,experiment_trials.exp_pause_resp.rt,experiment_trials.exp_pause_resp.duration,participant,session,date,expName,expVersion,psychopyVersion,frameRate,expStart,
"Einverständniserklärung

Bitte lesen Sie die folgende Erklärung aufmerksam durch:

Ich bestätige, dass ich über 18 Jahre alt bin und ausreichend Zeit hatte, mich für die Teilnahme zu entscheiden. Ich wurde über die Erhebung, Verarbeitung und öffentliche Zugänglichmachung meiner anonymisierten Daten angemessen informiert.
Ich bin mir bewusst, dass ich das Experiment jederzeit abbrechen kann.

(Drücken Sie die Leertaste, um fortzufahren)",4,4,0,,,,,,,,,,0,4,4,4,,,,,,,,,46.07387837499846,,0,ich stimme zu,,,,,,,,,,,,,,,,,,,,,,,108,A,2026-04-02_15h00.43.580,exp_sofc_final,,2025.2.3,None,2026-04-02 15h00.44.486796 +0200,
,,,,,,,,,,,,,,,,,,,,,,,,,,,,,,,,,,,,,,,,,,,,,,,,,,,108,A,2026-04-02_15h00.43.580,exp_sofc_final,,2025.2.3,None,2026-04-02 15h00.44.486796 +0200,
,0,0,0,1,44.054317125002854,None,,,,,,,,,,,0,0,0,0,,,,,82.48919045799994,,,,clip_hund_25_sub_1,clips/clip_hund_25_sub_1.mp4,audios/silence.mp3,visual,sub,True,[],4,1,44.054317125002854,None,,,,,,,,,,,,108,A,2026-04-02_15h00.43.580,exp_sofc_final,,2025.2.3,None,2026-04-02 15h00.44.486796 +0200,
,1,0,1,None,,,,,,,,,,,,,1,0,1,0,,,,,135.06319595797686,,,,clip_hund_31_sub_0,clips/clip_hund_31_sub_0.mp4,audios/silence.mp3,visual,sub,False,[2.973414167005103],,None,,,,,,,,,,,,,,108,A,2026-04-02_15h00.43.580,exp_sofc_final,,2025.2.3,None,2026-04-02 15h00.44.486796 +0200,
,2,0,2,4,5.366590125020593,None,,,,,,,,,,,2,0,2,0,,,,,144.274348499981,,,,clip_hund_26_sub_1,clips/clip_hund_26_sub_1.mp4,audios/silence.mp3,visual,sub,True,[],4,4,5.366590125020593,None,,,,,,,,,,,,108,A,2026-04-02_15h00.43.580,exp_sofc_final,,2025.2.3,None,2026-04-02 15h00.44.486796 +0200,
,3,0,3,None,,,,,,,,,,,,,3,0,3,0,,,,,159.80615033299546,,,,clip_wurst_09_sub_1,clips/clip_wurst_09_sub_1.mp4,audios/clip_wurst_09_sub_1.mp3,audiovisual,sub,False,[],,None,,,,,,,,,,,,,,108,A,2026-04-02_15h00.43.580,exp_sofc_final,,2025.2.3,None,2026-04-02 15h00.44.486796 +0200,
,4,0,4,3,10.066016708005918,None,,,,,,,,,,,4,0,4,0,,,,,171.85083499999018,,,,clip_weißt_09_sub_1,clips/clip_weißt_09_sub_1.mp4,audios/silence.mp3,visual,sub,True,[5.919631750002736],4,3,10.066016708005918,None,,,,,,,,,,,,108,A,2026-04-02_15h00.43.580,exp_sofc_final,,2025.2.3,None,2026-04-02 15h00.44.486796 +0200,
,5,0,5,None,,,,,,,,,,,,,5,0,5,0,,,,,191.75889154197648,,,,clip_hund_28_nosub_0,clips/clip_hund_28_nosub_0.mp4,audios/clip_hund_28_nosub_0.mp3,audiovisual,nosub,False,[],,None,,,,,,,,,,,,,,108,A,2026-04-02_15h00.43.580,exp_sofc_final,,2025.2.3,None,2026-04-02 15h00.44.486796 +0200,
,6,0,6,None,,,,,,,,,,,,,6,0,6,0,,,,,202.3678093329945,,,,clip_weißt_05_sub_0,clips/clip_weißt_05_sub_0.mp4,audios/clip_weißt_05_sub_0.mp3,audiovisual,sub,False,[],,None,,,,,,,,,,,,,,108,A,2026-04-02_15h00.43.580,exp_sofc_final,,2025.2.3,None,2026-04-02 15h00.44.486796 +0200,
,7,0,7,None,,,,,,,,,,,,,7,0,7,0,,,,,212.92397937498754,,,,clip_weißt_18_nosub_1,clips/clip_weißt_18_nosub_1.mp4,audios/silence.mp3,visual,nosub,False,[6.9643370419798885],,None,,,,,,,,,,,,,,108,A,2026-04-02_15h00.43.580,exp_sofc_final,,2025.2.3,None,2026-04-02 15h00.44.486796 +0200,
,8,0,8,None,,,,,,,,,,,,,8,0,8,0,,,,,225.73477316697245,,,,clip_weißt_10_nosub_1,clips/clip_weißt_10_nosub_1.mp4,audios/clip_weißt_10_nosub_1.mp3,audiovisual,nosub,False,[5.332274791988311],,None,,,,,,,,,,,,,,108,A,2026-04-02_15h00.43.580,exp_sofc_final,,2025.2.3,None,2026-04-02 15h00.44.486796 +0200,
,9,0,9,3,8.481347541994182,None,,,,,,,,,,,9,0,9,0,,,,,237.5422267499962,,,,clip_hund_06_nosub_0,clips/clip_hund_06_nosub_0.mp4,audios/clip_hund_06_nosub_0.mp3,audiovisual,nosub,True,[],3,3,8.481347541994182,None,,,,,,,,,,,,108,A,2026-04-02_15h00.43.580,exp_sofc_final,,2025.2.3,None,2026-04-02 15h00.44.486796 +0200,
,10,0,10,None,,,,,,,,,,,,,10,0,10,0,,,,,257.73723662499106,,,,clip_weißt_21_nosub_0,clips/clip_weißt_21_nosub_0.mp4,audios/silence.mp3,visual,nosub,False,[],,None,,,,,,,,,,,,,,108,A,2026-04-02_15h00.43.580,exp_sofc_final,,2025.2.3,None,2026-04-02 15h00.44.486796 +0200,
,11,0,11,None,,,,,,,,,,,,,11,0,11,0,,,,,268.57630699998117,,,,clip_hund_02_sub_1,clips/clip_hund_02_sub_1.mp4,audios/clip_hund_02_sub_1.mp3,audiovisual,sub,False,[9.342053750006016],,None,,,,,,,,,,,,,,108,A,2026-04-02_15h00.43.580,exp_sofc_final,,2025.2.3,None,2026-04-02 15h00.44.486796 +0200,
,,,,,,,,,,,,,,,,,,,,,,,,,,,,,,,,,,,,,,,,,,,,,,,,,,,108,A,2026-04-02_15h00.43.580,exp_sofc_final,,2025.2.3,None,2026-04-02 15h00.44.486796 +0200,
,0,0,0,,,,None,None,,,,,,,,,,,,,0,0,0,0,284.8930620829924,,,,,,,,,,,,,,,clips/clip_dampf_02_nosub_1.mp4,audios/clip_dampf_02_nosub_1.mp3,audiovisual,[4.7624863749952056],None,None,,,,,,108,A,2026-04-02_15h00.43.580,exp_sofc_final,,2025.2.3,None,2026-04-02 15h00.44.486796 +0200,
,1,0,1,,,,None,None,,,,,,,,,,,,,1,0,1,0,294.9585102079727,,,,,,,,,,,,,,,clips/clip_claude_11_sub_0.mp4,audios/silence.mp3,visual,[],None,None,,,,,,108,A,2026-04-02_15h00.43.580,exp_sofc_final,,2025.2.3,None,2026-04-02 15h00.44.486796 +0200,
,2,0,2,,,,None,None,,,,,,,,,,,,,2,0,2,0,305.75541041698307,,,,,,,,,,,,,,,clips/clip_weißt_07_nosub_1.mp4,audios/clip_weißt_07_nosub_1.mp3,audiovisual,[],None,None,,,,,,108,A,2026-04-02_15h00.43.580,exp_sofc_final,,2025.2.3,None,2026-04-02 15h00.44.486796 +0200,
,3,0,3,,,,None,None,,,,,,,,,,,,,3,0,3,0,316.2672061249905,,,,,,,,,,,,,,,clips/clip_wurst_13_sub_0.mp4,audios/silence.mp3,visual,[],None,None,,,,,,108,A,2026-04-02_15h00.43.580,exp_sofc_final,,2025.2.3,None,2026-04-02 15h00.44.486796 +0200,
,4,0,4,,,,None,None,,,,,,,,,,,,,4,0,4,0,326.67457624999224,,,,,,,,,,,,,,,clips/clip_wurst_12_nosub_0.mp4,audios/clip_wurst_12_nosub_0.mp3,audiovisual,[],None,None,,,,,,108,A,2026-04-02_15h00.43.580,exp_sofc_final,,2025.2.3,None,2026-04-02 15h00.44.486796 +0200,
,5,0,5,,,,None,None,,,,,,,,,,,,,5,0,5,0,336.0754035419959,,,,,,,,,,,,,,,clips/clip_holo_11_nosub_2.mp4,audios/clip_holo_11_nosub_2.mp3,audiovisual,"[5.479559125000378, 9.221673459018348]",None,None,,,,,,108,A,2026-04-02_15h00.43.580,exp_sofc_final,,2025.2.3,None,2026-04-02 15h00.44.486796 +0200,
,6,0,6,,,,None,None,,,,,,,,,,,,,6,0,6,0,346.4997097919986,,,,,,,,,,,,,,,clips/clip_weißt_04_sub_0.mp4,audios/clip_weißt_04_sub_0.mp3,audiovisual,[],None,None,,,,,,108,A,2026-04-02_15h00.43.580,exp_sofc_final,,2025.2.3,None,2026-04-02 15h00.44.486796 +0200,
,7,0,7,,,,None,None,,,,,,,,,,,,,7,0,7,0,357.3344949169841,,,,,,,,,,,,,,,clips/clip_dampf_01_nosub_0.mp4,audios/silence.mp3,visual,[],None,None,,,,,,108,A,2026-04-02_15h00.43.580,exp_sofc_final,,2025.2.3,None,2026-04-02 15h00.44.486796 +0200,
,8,0,8,,,,None,None,,,,,,,,,,,,,8,0,8,0,367.55591012499644,,,,,,,,,,,,,,,clips/clip_wurst_25_sub_1.mp4,audios/silence.mp3,visual,[],None,None,,,,,,108,A,2026-04-02_15h00.43.580,exp_sofc_final,,2025.2.3,None,2026-04-02 15h00.44.486796 +0200,
,9,0,9,,,,4,None,12.767141874996014,None,,,,,,,,,,,9,0,9,0,379.53247404197464,,,,,,,,,,,,,,,clips/clip_holo_10_nosub_1.mp4,audios/silence.mp3,visual,[5.921369708987186],4,None,4,12.767141874996014,None,,,108,A,2026-04-02_15h00.43.580,exp_sofc_final,,2025.2.3,None,2026-04-02 15h00.44.486796 +0200,
,10,0,10,,,,None,None,,,,,,,,,,,,,10,0,10,0,403.0741964999761,,,,,,,,,,,,,,,clips/clip_weißt_16_nosub_0.mp4,audios/silence.mp3,visual,[],None,None,,,,,,108,A,2026-04-02_15h00.43.580,exp_sofc_final,,2025.2.3,None,2026-04-02 15h00.44.486796 +0200,
,11,0,11,,,,3,None,3.2566883330000564,None,,,,,,,,,,,11,0,11,0,414.3556390419835,,,,,,,,,,,,,,,clips/clip_lied_06_nosub_1.mp4,audios/silence.mp3,visual,[],3,None,3,3.2566883330000564,None,,,108,A,2026-04-02_15h00.43.580,exp_sofc_final,,2025.2.3,None,2026-04-02 15h00.44.486796 +0200,
,12,0,12,,,,None,None,,,,,,,,,,,,,12,0,12,0,431.0476373329875,,,,,,,,,,,,,,,clips/clip_claude_10_nosub_0.mp4,audios/clip_claude_10_nosub_0.mp3,audiovisual,[],None,None,,,,,,108,A,2026-04-02_15h00.43.580,exp_sofc_final,,2025.2.3,None,2026-04-02 15h00.44.486796 +0200,
,13,0,13,,,,None,None,,,,,,,,,,,,,13,0,13,0,443.0039917079848,,,,,,,,,,,,,,,clips/clip_hund_30_sub_0.mp4,audios/silence.mp3,visual,[],None,None,,,,,,108,A,2026-04-02_15h00.43.580,exp_sofc_final,,2025.2.3,None,2026-04-02 15h00.44.486796 +0200,
,14,0,14,,,,None,None,,,,,,,,,,,,,14,0,14,0,455.8254719999968,,,,,,,,,,,,,,,clips/clip_herz_07_nosub_2.mp4,audios/silence.mp3,visual,"[4.009022959013237, 10.807914292003261]",None,None,,,,,,108,A,2026-04-02_15h00.43.580,exp_sofc_final,,2025.2.3,None,2026-04-02 15h00.44.486796 +0200,
,15,0,15,,,,4,None,3.5030979169823695,None,,,,,,,,,,,15,0,15,0,468.623466457997,,,,,,,,,,,,,,,clips/clip_wurst_08_sub_1.mp4,audios/silence.mp3,visual,[5.318659041018691],4,None,4,3.5030979169823695,None,,,108,A,2026-04-02_15h00.43.580,exp_sofc_final,,2025.2.3,None,2026-04-02 15h00.44.486796 +0200,
,16,0,16,,,,None,None,,,,,,,,,,,,,16,0,16,0,481.45367116699344,,,,,,,,,,,,,,,clips/clip_claude_17_nosub_1.mp4,audios/silence.mp3,visual,[10.214100542012602],None,None,,,,,,108,A,2026-04-02_15h00.43.580,exp_sofc_final,,2025.2.3,None,2026-04-02 15h00.44.486796 +0200,
,17,0,17,,,,None,None,,,,,,,,,,,,,17,0,17,0,493.7468311249977,,,,,,,,,,,,,,,clips/clip_holo_08_sub_2.mp4,audios/silence.mp3,visual,[9.671472957998049],None,None,,,,,,108,A,2026-04-02_15h00.43.580,exp_sofc_final,,2025.2.3,None,2026-04-02 15h00.44.486796 +0200,
,18,0,18,,,,None,None,,,,,,,,,,,,,18,0,18,0,505.3218791669933,,,,,,,,,,,,,,,clips/clip_holo_03_nosub_1.mp4,audios/clip_holo_03_nosub_1.mp3,audiovisual,[7.503104250004981],None,None,,,,,,108,A,2026-04-02_15h00.43.580,exp_sofc_final,,2025.2.3,None,2026-04-02 15h00.44.486796 +0200,
,19,0,19,,,,None,None,,,,,,,,,,,,,19,0,19,0,515.607514082978,,,,,,,,,,,,,,,clips/clip_lied_11_nosub_1.mp4,audios/clip_lied_11_nosub_1.mp3,audiovisual,[7.987657999998191],None,None,,,,,,108,A,2026-04-02_15h00.43.580,exp_sofc_final,,2025.2.3,None,2026-04-02 15h00.44.486796 +0200,
,20,0,20,,,,None,None,,,,,,,,,,,,,20,0,20,0,527.4877173329878,,,,,,,,,,,,,,,clips/clip_hund_04_nosub_0.mp4,audios/silence.mp3,visual,[],None,None,,,,,,108,A,2026-04-02_15h00.43.580,exp_sofc_final,,2025.2.3,None,2026-04-02 15h00.44.486796 +0200,
,21,0,21,,,,None,None,,,,,,,,,,,,,21,0,21,0,537.7806635419838,,,,,,,,,,,,,,,clips/clip_wurst_30_sub_1.mp4,audios/clip_wurst_30_sub_1.mp3,audiovisual,[],None,None,,,,,,108,A,2026-04-02_15h00.43.580,exp_sofc_final,,2025.2.3,None,2026-04-02 15h00.44.486796 +0200,
,22,0,22,,,,None,None,,,,,,,,,,,,,22,0,22,0,548.5802342499956,,,,,,,,,,,,,,,clips/clip_dampf_06_nosub_2.mp4,audios/clip_dampf_06_nosub_2.mp3,audiovisual,[],None,None,,,,,,108,A,2026-04-02_15h00.43.580,exp_sofc_final,,2025.2.3,None,2026-04-02 15h00.44.486796 +0200,
,23,0,23,,,,None,None,,,,,,,,,,,,,23,0,23,0,558.3744107499951,,,,,,,,,,,,,,,clips/clip_dampf_03_sub_1.mp4,audios/silence.mp3,visual,[7.578813375002937],None,None,,,,,,108,A,2026-04-02_15h00.43.580,exp_sofc_final,,2025.2.3,None,2026-04-02 15h00.44.486796 +0200,
,24,0,24,,,,None,None,,,,,,,,,,,,,24,0,24,0,566.7732104999886,,,,,,,,,,,,,,,clips/clip_holo_17_sub_0.mp4,audios/clip_holo_17_sub_0.mp3,audiovisual,[],None,None,,,,,,108,A,2026-04-02_15h00.43.580,exp_sofc_final,,2025.2.3,None,2026-04-02 15h00.44.486796 +0200,
,25,0,25,,,,4,None,2.271766874997411,None,,,,,,,,,,,25,0,25,0,577.3644769169914,,,,,,,,,,,,,,,clips/clip_weißt_17_nosub_0.mp4,audios/clip_weißt_17_nosub_0.mp3,audiovisual,[],4,None,4,2.271766874997411,None,,,108,A,2026-04-02_15h00.43.580,exp_sofc_final,,2025.2.3,None,2026-04-02 15h00.44.486796 +0200,
,26,0,26,,,,None,None,,,,,,,,,,,,,26,0,26,0,592.0030062079895,,,,,,,,,,,,,,,clips/clip_hund_29_nosub_0.mp4,audios/clip_hund_29_nosub_0.mp3,audiovisual,[10.411202166986186],None,None,,,,,,108,A,2026-04-02_15h00.43.580,exp_sofc_final,,2025.2.3,None,2026-04-02 15h00.44.486796 +0200,
,27,0,27,,,,None,None,,,,,,,,,,,,,27,0,27,0,604.154432374984,,,,,,,,,,,,,,,clips/clip_wurst_10_sub_2.mp4,audios/clip_wurst_10_sub_2.mp3,audiovisual,[6.059457915980602],None,None,,,,,,108,A,2026-04-02_15h00.43.580,exp_sofc_final,,2025.2.3,None,2026-04-02 15h00.44.486796 +0200,
,28,0,28,,,,None,None,,,,,,,,,,,,,28,0,28,0,613.7072413329734,,,,,,,,,,,,,,,clips/clip_lied_14_sub_0.mp4,audios/clip_lied_14_sub_0.mp3,audiovisual,[],None,None,,,,,,108,A,2026-04-02_15h00.43.580,exp_sofc_final,,2025.2.3,None,2026-04-02 15h00.44.486796 +0200,
,29,0,29,,,,None,None,,,,,,,,,,,,,29,0,29,0,624.1378977079876,,,,,,,,,,,,,,,clips/clip_weißt_29_sub_1.mp4,audios/silence.mp3,visual,[6.893918166984804],None,None,,,,,,108,A,2026-04-02_15h00.43.580,exp_sofc_final,,2025.2.3,None,2026-04-02 15h00.44.486796 +0200,
,30,0,30,,,,None,None,,,,,,,,,,,,,30,0,30,0,636.5006270829763,,,,,,,,,,,,,,,clips/clip_holo_02_nosub_2.mp4,audios/silence.mp3,visual,"[3.9329641250078566, 8.101108667004155]",None,None,,,,,,108,A,2026-04-02_15h00.43.580,exp_sofc_final,,2025.2.3,None,2026-04-02 15h00.44.486796 +0200,
,31,0,31,,,,None,None,,,,,,,,,,,,,31,0,31,0,648.4795849169896,,,,,,,,,,,,,,,clips/clip_weißt_15_sub_1.mp4,audios/clip_weißt_15_sub_1.mp3,audiovisual,"[2.94507279197569, 4.821133416990051]",None,None,,,,,,108,A,2026-04-02_15h00.43.580,exp_sofc_final,,2025.2.3,None,2026-04-02 15h00.44.486796 +0200,
,32,0,32,,,,1,None,2.9188837080146186,None,,,,,,,,,,,32,0,32,0,660.1685749999888,,,,,,,,,,,,,,,clips/clip_holo_15_nosub_0.mp4,audios/clip_holo_15_nosub_0.mp3,audiovisual,[6.107699332991615],1,None,1,2.9188837080146186,None,,,108,A,2026-04-02_15h00.43.580,exp_sofc_final,,2025.2.3,None,2026-04-02 15h00.44.486796 +0200,
,33,0,33,,,,2,None,4.32096625000122,None,,,,,,,,,,,33,0,33,0,673.0777649579977,,,,,,,,,,,,,,,clips/clip_wurst_23_nosub_2.mp4,audios/silence.mp3,visual,"[3.477657250012271, 7.624658500018995]",2,None,1,4.32096625000122,None,,,108,A,2026-04-02_15h00.43.580,exp_sofc_final,,2025.2.3,None,2026-04-02 15h00.44.486796 +0200,
,34,0,34,,,,None,None,,,,,,,,,,,,,34,0,34,0,688.6902855419903,,,,,,,,,,,,,,,clips/clip_weißt_25_sub_1.mp4,audios/silence.mp3,visual,[],None,None,,,,,,108,A,2026-04-02_15h00.43.580,exp_sofc_final,,2025.2.3,None,2026-04-02 15h00.44.486796 +0200,
,35,0,35,,,,None,None,,,,,,,,,,,,,35,0,35,0,701.4808099579823,,,,,,,,,,,,,,,clips/clip_holo_04_sub_2.mp4,audios/silence.mp3,visual,"[3.2499189999944065, 6.954002582991961]",None,None,,,,,,108,A,2026-04-02_15h00.43.580,exp_sofc_final,,2025.2.3,None,2026-04-02 15h00.44.486796 +0200,
,36,0,36,,,,None,None,,,,,,,,,,,,,36,0,36,0,714.2633664169989,,,,,,,,,,,,,,,clips/clip_lied_15_nosub_2.mp4,audios/silence.mp3,visual,[6.979059292003512],None,None,,,,,,108,A,2026-04-02_15h00.43.580,exp_sofc_final,,2025.2.3,None,2026-04-02 15h00.44.486796 +0200,
,37,0,37,,,,None,None,,,,,,,,,,,,,37,0,37,0,722.3483263749804,,,,,,,,,,,,,,,clips/clip_hund_34_nosub_1.mp4,audios/silence.mp3,visual,[],None,None,,,,,,108,A,2026-04-02_15h00.43.580,exp_sofc_final,,2025.2.3,None,2026-04-02 15h00.44.486796 +0200,
,38,0,38,,,,None,None,,,,,,,,,,,,,38,0,38,0,733.5678172919725,,,,,,,,,,,,,,,clips/clip_weißt_23_nosub_1.mp4,audios/clip_weißt_23_nosub_1.mp3,audiovisual,[8.342094249994261],None,None,,,,,,108,A,2026-04-02_15h00.43.580,exp_sofc_final,,2025.2.3,None,2026-04-02 15h00.44.486796 +0200,
,39,0,39,,,,None,None,,,,,,,,,,,,,39,0,39,0,745.7676522499823,,,,,,,,,,,,,,,clips/clip_holo_21_sub_1.mp4,audios/clip_holo_21_sub_1.mp3,audiovisual,"[4.097960292012431, 8.997196292009903]",None,None,,,,,,108,A,2026-04-02_15h00.43.580,exp_sofc_final,,2025.2.3,None,2026-04-02 15h00.44.486796 +0200,
,40,0,40,,,,None,None,,,,,,,,,,,,,40,0,40,0,756.6912889169762,,,,,,,,,,,,,,,clips/clip_holo_20_sub_1.mp4,audios/silence.mp3,visual,[],None,None,,,,,,108,A,2026-04-02_15h00.43.580,exp_sofc_final,,2025.2.3,None,2026-04-02 15h00.44.486796 +0200,
,41,0,41,,,,None,None,,,,,,,,,,,,,41,0,41,0,766.8736766249931,,,,,,,,,,,,,,,clips/clip_hund_15_sub_1.mp4,audios/silence.mp3,visual,[4.703698500001337],None,None,,,,,,108,A,2026-04-02_15h00.43.580,exp_sofc_final,,2025.2.3,None,2026-04-02 15h00.44.486796 +0200,
,42,0,42,,,,3,None,2.5835421250085346,None,,,,,,,,,,,42,0,42,0,778.1083449169819,,,,,,,,,,,,,,,clips/clip_lied_18_sub_2.mp4,audios/clip_lied_18_sub_2.mp3,audiovisual,[7.096282916987548],3,None,3,2.5835421250085346,None,,,108,A,2026-04-02_15h00.43.580,exp_sofc_final,,2025.2.3,None,2026-04-02 15h00.44.486796 +0200,
,43,0,43,,,,None,None,,,,,,,,,,,,,43,0,43,0,792.1708410419815,,,,,,,,,,,,,,,clips/clip_claude_01_nosub_2.mp4,audios/silence.mp3,visual,"[6.664958999986993, 8.750055374985095]",None,None,,,,,,108,A,2026-04-02_15h00.43.580,exp_sofc_final,,2025.2.3,None,2026-04-02 15h00.44.486796 +0200,
,44,0,44,,,,None,None,,,,,,,,,,,,,44,0,44,0,803.8846164999995,,,,,,,,,,,,,,,clips/clip_claude_13_nosub_0.mp4,audios/silence.mp3,visual,[],None,None,,,,,,108,A,2026-04-02_15h00.43.580,exp_sofc_final,,2025.2.3,None,2026-04-02 15h00.44.486796 +0200,
,45,0,45,,,,None,None,,,,,,,,,,,,,45,0,45,0,813.8878731250006,,,,,,,,,,,,,,,clips/clip_hund_32_sub_1.mp4,audios/clip_hund_32_sub_1.mp3,audiovisual,[4.697236207983224],None,None,,,,,,108,A,2026-04-02_15h00.43.580,exp_sofc_final,,2025.2.3,None,2026-04-02 15h00.44.486796 +0200,
,46,0,46,,,,None,None,,,,,,,,,,,,,46,0,46,0,824.6563552919833,,,,,,,,,,,,,,,clips/clip_holo_27_nosub_1.mp4,audios/silence.mp3,visual,[5.221263582992833],None,None,,,,,,108,A,2026-04-02_15h00.43.580,exp_sofc_final,,2025.2.3,None,2026-04-02 15h00.44.486796 +0200,
,47,0,47,,,,2,None,4.929902667005081,None,,,,,,,,,,,47,0,47,0,835.4303242499882,,,,,,,,,,,,,,,clips/clip_holo_16_sub_1.mp4,audios/silence.mp3,visual,[10.289565999992192],2,None,2,4.929902667005081,None,,,108,A,2026-04-02_15h00.43.580,exp_sofc_final,,2025.2.3,None,2026-04-02 15h00.44.486796 +0200,
,48,0,48,,,,None,None,,,,,,,,,,,,,48,0,48,0,853.1744186669821,,,,,,,,,,,,,,,clips/clip_weißt_14_sub_2.mp4,audios/silence.mp3,visual,"[3.2768173330114223, 8.142029790993547]",None,None,,,,,,108,A,2026-04-02_15h00.43.580,exp_sofc_final,,2025.2.3,None,2026-04-02 15h00.44.486796 +0200,
,49,0,49,,,,2,None,12.044758333999198,None,,,,,,,,,,,49,0,49,0,862.8576372919779,,,,,,,,,,,,,,,clips/clip_herz_11_nosub_0.mp4,audios/silence.mp3,visual,[4.852351583976997],2,None,2,12.044758333999198,None,,,108,A,2026-04-02_15h00.43.580,exp_sofc_final,,2025.2.3,None,2026-04-02 15h00.44.486796 +0200,
,50,0,50,,,,None,None,,,,,,,,,,,,,50,0,50,0,885.026478832995,,,,,,,,,,,,,,,clips/clip_weißt_27_nosub_1.mp4,audios/silence.mp3,visual,[7.889268625003751],None,None,,,,,,108,A,2026-04-02_15h00.43.580,exp_sofc_final,,2025.2.3,None,2026-04-02 15h00.44.486796 +0200,
,51,0,51,,,,None,None,,,,,,,,,,,,,51,0,51,0,895.8759781249973,,,,,,,,,,,,,,,clips/clip_wurst_18_sub_0.mp4,audios/clip_wurst_18_sub_0.mp3,audiovisual,[6.781210207991535],None,None,,,,,,108,A,2026-04-02_15h00.43.580,exp_sofc_final,,2025.2.3,None,2026-04-02 15h00.44.486796 +0200,
,52,0,52,,,,None,None,,,,,,,,,,,,,52,0,52,0,906.6655452079722,,,,,,,,,,,,,,,clips/clip_herz_04_nosub_0.mp4,audios/clip_herz_04_nosub_0.mp3,audiovisual,[7.813178250013152],None,None,,,,,,108,A,2026-04-02_15h00.43.580,exp_sofc_final,,2025.2.3,None,2026-04-02 15h00.44.486796 +0200,
,53,0,53,,,,None,None,,,,,,,,,,,,,53,0,53,0,918.4485548749799,,,,,,,,,,,,,,,clips/clip_holo_12_sub_1.mp4,audios/silence.mp3,visual,[8.678078333003214],None,None,,,,,,108,A,2026-04-02_15h00.43.580,exp_sofc_final,,2025.2.3,None,2026-04-02 15h00.44.486796 +0200,
,54,0,54,,,,None,None,,,,,,,,,,,,,54,0,54,0,929.2564274579927,,,,,,,,,,,,,,,clips/clip_wurst_14_sub_1.mp4,audios/clip_wurst_14_sub_1.mp3,audiovisual,[8.105338291992666],None,None,,,,,,108,A,2026-04-02_15h00.43.580,exp_sofc_final,,2025.2.3,None,2026-04-02 15h00.44.486796 +0200,
,55,0,55,,,,None,None,,,,,,,,,,,,,55,0,55,0,940.0569112919911,,,,,,,,,,,,,,,clips/clip_lied_09_sub_1.mp4,audios/clip_lied_09_sub_1.mp3,audiovisual,[],None,None,,,,,,108,A,2026-04-02_15h00.43.580,exp_sofc_final,,2025.2.3,None,2026-04-02 15h00.44.486796 +0200,
,56,0,56,,,,4,None,2.925359249988105,None,,,,,,,,,,,56,0,56,0,951.2341709579923,,,,,,,,,,,,,,,clips/clip_herz_01_sub_1.mp4,audios/silence.mp3,visual,[6.368913374986732],4,None,4,2.925359249988105,None,,,108,A,2026-04-02_15h00.43.580,exp_sofc_final,,2025.2.3,None,2026-04-02 15h00.44.486796 +0200,
,57,0,57,,,,None,None,,,,,,,,,,,,,57,0,57,0,965.5635090419964,,,,,,,,,,,,,,,clips/clip_claude_18_nosub_0.mp4,audios/clip_claude_18_nosub_0.mp3,audiovisual,[],None,None,,,,,,108,A,2026-04-02_15h00.43.580,exp_sofc_final,,2025.2.3,None,2026-04-02 15h00.44.486796 +0200,
,58,0,58,,,,None,None,,,,,,,,,,,,,58,0,58,0,975.3696967499855,,,,,,,,,,,,,,,clips/clip_hund_09_nosub_2.mp4,audios/silence.mp3,visual,"[6.029448916000547, 10.420427957986249]",None,None,,,,,,108,A,2026-04-02_15h00.43.580,exp_sofc_final,,2025.2.3,None,2026-04-02 15h00.44.486796 +0200,
,59,0,59,,,,None,space,,,1.99727916700067,None,,,,,,,,,59,0,59,0,987.6951191249827,,,,,,,,,,,,,,,clips/clip_herz_15_nosub_0.mp4,audios/silence.mp3,visual,"[3.173046666983282, 7.779635166982189]",None,space,,,,1.99727916700067,None,108,A,2026-04-02_15h00.43.580,exp_sofc_final,,2025.2.3,None,2026-04-02 15h00.44.486796 +0200,
,60,0,60,,,,3,None,2.2384760419954546,None,,,,,,,,,,,60,0,60,0,1002.5055984579958,,,,,,,,,,,,,,,clips/clip_weißt_01_nosub_1.mp4,audios/silence.mp3,visual,[6.07280887500383],3,None,3,2.2384760419954546,None,,,108,A,2026-04-02_15h00.43.580,exp_sofc_final,,2025.2.3,None,2026-04-02 15h00.44.486796 +0200,
,61,0,61,,,,4,None,3.428290042007575,None,,,,,,,,,,,61,0,61,0,1016.5698675829917,,,,,,,,,,,,,,,clips/clip_claude_02_nosub_1.mp4,audios/clip_claude_02_nosub_1.mp3,audiovisual,[5.649487124988809],4,None,4,3.428290042007575,None,,,108,A,2026-04-02_15h00.43.580,exp_sofc_final,,2025.2.3,None,2026-04-02 15h00.44.486796 +0200,
,62,0,62,,,,None,None,,,,,,,,,,,,,62,0,62,0,1030.5949794169865,,,,,,,,,,,,,,,clips/clip_claude_23_sub_0.mp4,audios/silence.mp3,visual,[],None,None,,,,,,108,A,2026-04-02_15h00.43.580,exp_sofc_final,,2025.2.3,None,2026-04-02 15h00.44.486796 +0200,
,63,0,63,,,,None,None,,,,,,,,,,,,,63,0,63,0,1043.5048533329973,,,,,,,,,,,,,,,clips/clip_claude_14_nosub_0.mp4,audios/clip_claude_14_nosub_0.mp3,audiovisual,[8.787742290995084],None,None,,,,,,108,A,2026-04-02_15h00.43.580,exp_sofc_final,,2025.2.3,None,2026-04-02 15h00.44.486796 +0200,
,64,0,64,,,,None,None,,,,,,,,,,,,,64,0,64,0,1055.5391926249722,,,,,,,,,,,,,,,clips/clip_wurst_20_nosub_0.mp4,audios/clip_wurst_20_nosub_0.mp3,audiovisual,[],None,None,,,,,,108,A,2026-04-02_15h00.43.580,exp_sofc_final,,2025.2.3,None,2026-04-02 15h00.44.486796 +0200,
,65,0,65,,,,None,None,,,,,,,,,,,,,65,0,65,0,1066.3203238329734,,,,,,,,,,,,,,,clips/clip_weißt_12_nosub_1.mp4,audios/silence.mp3,visual,[8.959927499992773],None,None,,,,,,108,A,2026-04-02_15h00.43.580,exp_sofc_final,,2025.2.3,None,2026-04-02 15h00.44.486796 +0200,
,66,0,66,,,,None,None,,,,,,,,,,,,,66,0,66,0,1078.9991705829743,,,,,,,,,,,,,,,clips/clip_claude_09_nosub_2.mp4,audios/silence.mp3,visual,"[3.9336237080278806, 8.647337291011354]",None,None,,,,,,108,A,2026-04-02_15h00.43.580,exp_sofc_final,,2025.2.3,None,2026-04-02 15h00.44.486796 +0200,
,67,0,67,,,,None,None,,,,,,,,,,,,,67,0,67,0,1089.9953168749926,,,,,,,,,,,,,,,clips/clip_herz_13_sub_0.mp4,audios/silence.mp3,visual,[7.74220766601502],None,None,,,,,,108,A,2026-04-02_15h00.43.580,exp_sofc_final,,2025.2.3,None,2026-04-02 15h00.44.486796 +0200,
,68,0,68,,,,3,None,2.9059325830021407,None,,,,,,,,,,,68,0,68,0,1101.9567364579998,,,,,,,,,,,,,,,clips/clip_weißt_06_nosub_0.mp4,audios/silence.mp3,visual,[5.779659207997611],3,None,3,2.9059325830021407,None,,,108,A,2026-04-02_15h00.43.580,exp_sofc_final,,2025.2.3,None,2026-04-02 15h00.44.486796 +0200,
,69,0,69,,,,None,None,,,,,,,,,,,,,69,0,69,0,1115.9783089169941,,,,,,,,,,,,,,,clips/clip_claude_07_sub_0.mp4,audios/silence.mp3,visual,[],None,None,,,,,,108,A,2026-04-02_15h00.43.580,exp_sofc_final,,2025.2.3,None,2026-04-02 15h00.44.486796 +0200,
,70,0,70,,,,3,None,4.454117207991658,None,,,,,,,,,,,70,0,70,0,1126.7733609999996,,,,,,,,,,,,,,,clips/clip_wurst_26_sub_1.mp4,audios/clip_wurst_26_sub_1.mp3,audiovisual,[10.163346832996467],3,None,3,4.454117207991658,None,,,108,A,2026-04-02_15h00.43.580,exp_sofc_final,,2025.2.3,None,2026-04-02 15h00.44.486796 +0200,
,71,0,71,,,,None,None,,,,,,,,,,,,,71,0,71,0,1144.044619082997,,,,,,,,,,,,,,,clips/clip_hund_03_sub_1.mp4,audios/clip_hund_03_sub_1.mp3,audiovisual,[6.504738415998872],None,None,,,,,,108,A,2026-04-02_15h00.43.580,exp_sofc_final,,2025.2.3,None,2026-04-02 15h00.44.486796 +0200,
,72,0,72,,,,None,None,,,,,,,,,,,,,72,0,72,0,1156.6593019169813,,,,,,,,,,,,,,,clips/clip_herz_06_sub_2.mp4,audios/clip_herz_06_sub_2.mp3,audiovisual,[1.0414256660151295],None,None,,,,,,108,A,2026-04-02_15h00.43.580,exp_sofc_final,,2025.2.3,None,2026-04-02 15h00.44.486796 +0200,
,73,0,73,,,,None,None,,,,,,,,,,,,,73,0,73,0,1168.013618582976,,,,,,,,,,,,,,,clips/clip_lied_07_nosub_1.mp4,audios/clip_lied_07_nosub_1.mp3,audiovisual,[4.421208999992814],None,None,,,,,,108,A,2026-04-02_15h00.43.580,exp_sofc_final,,2025.2.3,None,2026-04-02 15h00.44.486796 +0200,
,74,0,74,,,,None,None,,,,,,,,,,,,,74,0,74,0,1177.8001266249921,,,,,,,,,,,,,,,clips/clip_lied_16_nosub_2.mp4,audios/clip_lied_16_nosub_2.mp3,audiovisual,"[3.99968183398596, 6.682647667010315]",None,None,,,,,,108,A,2026-04-02_15h00.43.580,exp_sofc_final,,2025.2.3,None,2026-04-02 15h00.44.486796 +0200,
,75,0,75,,,,2,None,2.897965457988903,None,,,,,,,,,,,75,0,75,0,1189.1815230419743,,,,,,,,,,,,,,,clips/clip_weißt_28_nosub_1.mp4,audios/clip_weißt_28_nosub_1.mp3,audiovisual,"[1.9656101249856874, 6.881610082986299]",2,None,2,2.897965457988903,None,,,108,A,2026-04-02_15h00.43.580,exp_sofc_final,,2025.2.3,None,2026-04-02 15h00.44.486796 +0200,
,76,0,76,,,,None,None,,,,,,,,,,,,,76,0,76,0,1202.9545069579908,,,,,,,,,,,,,,,clips/clip_hund_24_sub_1.mp4,audios/clip_hund_24_sub_1.mp3,audiovisual,[8.036127750005107],None,None,,,,,,108,A,2026-04-02_15h00.43.580,exp_sofc_final,,2025.2.3,None,2026-04-02 15h00.44.486796 +0200,
,77,0,77,,,,None,None,,,,,,,,,,,,,77,0,77,0,1215.6944147920003,,,,,,,,,,,,,,,clips/clip_claude_27_sub_0.mp4,audios/silence.mp3,visual,[],None,None,,,,,,108,A,2026-04-02_15h00.43.580,exp_sofc_final,,2025.2.3,None,2026-04-02 15h00.44.486796 +0200,
,78,0,78,,,,None,None,,,,,,,,,,,,,78,0,78,0,1228.4963619999762,,,,,,,,,,,,,,,clips/clip_weißt_03_sub_0.mp4,audios/silence.mp3,visual,[],None,None,,,,,,108,A,2026-04-02_15h00.43.580,exp_sofc_final,,2025.2.3,None,2026-04-02 15h00.44.486796 +0200,
,79,0,79,,,,None,None,,,,,,,,,,,,,79,0,79,0,1241.2998511249898,,,,,,,,,,,,,,,clips/clip_weißt_26_sub_1.mp4,audios/clip_weißt_26_sub_1.mp3,audiovisual,[9.289376041997457],None,None,,,,,,108,A,2026-04-02_15h00.43.580,exp_sofc_final,,2025.2.3,None,2026-04-02 15h00.44.486796 +0200,
,80,0,80,,,,None,None,,,,,,,,,,,,,80,0,80,0,1252.2890462499927,,,,,,,,,,,,,,,clips/clip_claude_04_sub_2.mp4,audios/clip_claude_04_sub_2.mp3,audiovisual,[8.437045458005741],None,None,,,,,,108,A,2026-04-02_15h00.43.580,exp_sofc_final,,2025.2.3,None,2026-04-02 15h00.44.486796 +0200,
,81,0,81,,,,None,None,,,,,,,,,,,,,81,0,81,0,1262.0599655419937,,,,,,,,,,,,,,,clips/clip_herz_09_sub_0.mp4,audios/silence.mp3,visual,[],None,None,,,,,,108,A,2026-04-02_15h00.43.580,exp_sofc_final,,2025.2.3,None,2026-04-02 15h00.44.486796 +0200,
,82,0,82,,,,None,None,,,,,,,,,,,,,82,0,82,0,1274.3693458749913,,,,,,,,,,,,,,,clips/clip_claude_03_sub_1.mp4,audios/silence.mp3,visual,"[5.134524208988296, 8.64658116697683]",None,None,,,,,,108,A,2026-04-02_15h00.43.580,exp_sofc_final,,2025.2.3,None,2026-04-02 15h00.44.486796 +0200,
,83,0,83,,,,None,None,,,,,,,,,,,,,83,0,83,0,1286.7376281670004,,,,,,,,,,,,,,,clips/clip_claude_20_sub_1.mp4,audios/clip_claude_20_sub_1.mp3,audiovisual,[6.472512874985114],None,None,,,,,,108,A,2026-04-02_15h00.43.580,exp_sofc_final,,2025.2.3,None,2026-04-02 15h00.44.486796 +0200,
,84,0,84,,,,None,None,,,,,,,,,,,,,84,0,84,0,1299.4981679579942,,,,,,,,,,,,,,,clips/clip_wurst_29_sub_1.mp4,audios/silence.mp3,visual,[],None,None,,,,,,108,A,2026-04-02_15h00.43.580,exp_sofc_final,,2025.2.3,None,2026-04-02 15h00.44.486796 +0200,
,85,0,85,,,,1,None,3.5773457500035875,None,,,,,,,,,,,85,0,85,0,1312.2976979579835,,,,,,,,,,,,,,,clips/clip_wurst_36_nosub_0.mp4,audios/clip_wurst_36_nosub_0.mp3,audiovisual,[],1,None,1,3.5773457500035875,None,,,108,A,2026-04-02_15h00.43.580,exp_sofc_final,,2025.2.3,None,2026-04-02 15h00.44.486796 +0200,
,86,0,86,,,,None,None,,,,,,,,,,,,,86,0,86,0,1326.5399028749962,,,,,,,,,,,,,,,clips/clip_wurst_19_nosub_0.mp4,audios/silence.mp3,visual,[],None,None,,,,,,108,A,2026-04-02_15h00.43.580,exp_sofc_final,,2025.2.3,None,2026-04-02 15h00.44.486796 +0200,
,87,0,87,,,,None,None,,,,,,,,,,,,,87,0,87,0,1338.339882374974,,,,,,,,,,,,,,,clips/clip_hund_35_nosub_0.mp4,audios/clip_hund_35_nosub_0.mp3,audiovisual,[],None,None,,,,,,108,A,2026-04-02_15h00.43.580,exp_sofc_final,,2025.2.3,None,2026-04-02 15h00.44.486796 +0200,
,88,0,88,,,,None,None,,,,,,,,,,,,,88,0,88,0,1349.5521222499956,,,,,,,,,,,,,,,clips/clip_claude_19_sub_0.mp4,audios/silence.mp3,visual,[],None,None,,,,,,108,A,2026-04-02_15h00.43.580,exp_sofc_final,,2025.2.3,None,2026-04-02 15h00.44.486796 +0200,
,89,0,89,,,,None,None,,,,,,,,,,,,,89,0,89,0,1360.7375112919835,,,,,,,,,,,,,,,clips/clip_wurst_35_nosub_0.mp4,audios/silence.mp3,visual,[],None,None,,,,,,108,A,2026-04-02_15h00.43.580,exp_sofc_final,,2025.2.3,None,2026-04-02 15h00.44.486796 +0200,
,90,0,90,,,,None,None,,,,,,,,,,,,,90,0,90,0,1370.8196008749946,,,,,,,,,,,,,,,clips/clip_holo_23_nosub_1.mp4,audios/clip_holo_23_nosub_1.mp3,audiovisual,[],None,None,,,,,,108,A,2026-04-02_15h00.43.580,exp_sofc_final,,2025.2.3,None,2026-04-02 15h00.44.486796 +0200,
,91,0,91,,,,None,None,,,,,,,,,,,,,91,0,91,0,1381.667830957973,,,,,,,,,,,,,,,clips/clip_hund_05_nosub_0.mp4,audios/clip_hund_05_nosub_0.mp3,audiovisual,[4.036689375003334],None,None,,,,,,108,A,2026-04-02_15h00.43.580,exp_sofc_final,,2025.2.3,None,2026-04-02 15h00.44.486796 +0200,
,92,0,92,,,,None,None,,,,,,,,,,,,,92,0,92,0,1393.438985707995,,,,,,,,,,,,,,,clips/clip_claude_05_nosub_2.mp4,audios/silence.mp3,visual,[4.41777633401216],None,None,,,,,,108,A,2026-04-02_15h00.43.580,exp_sofc_final,,2025.2.3,None,2026-04-02 15h00.44.486796 +0200,
,93,0,93,,,,None,None,,,,,,,,,,,,,93,0,93,0,1405.5488383749907,,,,,,,,,,,,,,,clips/clip_lied_20_nosub_2.mp4,audios/clip_lied_20_nosub_2.mp3,audiovisual,"[3.6709124160115607, 9.35685912502231]",None,None,,,,,,108,A,2026-04-02_15h00.43.580,exp_sofc_final,,2025.2.3,None,2026-04-02 15h00.44.486796 +0200,
,94,0,94,,,,None,None,,,,,,,,,,,,,94,0,94,0,1416.9981774579792,,,,,,,,,,,,,,,clips/clip_herz_17_sub_0.mp4,audios/silence.mp3,visual,[5.571806207997724],None,None,,,,,,108,A,2026-04-02_15h00.43.580,exp_sofc_final,,2025.2.3,None,2026-04-02 15h00.44.486796 +0200,
,95,0,95,,,,None,None,,,,,,,,,,,,,95,0,95,0,1425.946698041982,,,,,,,,,,,,,,,clips/clip_wurst_33_sub_0.mp4,audios/silence.mp3,visual,[],None,None,,,,,,108,A,2026-04-02_15h00.43.580,exp_sofc_final,,2025.2.3,None,2026-04-02 15h00.44.486796 +0200,
,96,0,96,,,,None,None,,,,,,,,,,,,,96,0,96,0,1436.4656103749876,,,,,,,,,,,,,,,clips/clip_weißt_22_nosub_0.mp4,audios/silence.mp3,visual,[],None,None,,,,,,108,A,2026-04-02_15h00.43.580,exp_sofc_final,,2025.2.3,None,2026-04-02 15h00.44.486796 +0200,
,97,0,97,,,,None,None,,,,,,,,,,,,,97,0,97,0,1448.3477742919931,,,,,,,,,,,,,,,clips/clip_lied_02_nosub_2.mp4,audios/silence.mp3,visual,"[4.503841500001727, 9.47655254098936]",None,None,,,,,,108,A,2026-04-02_15h00.43.580,exp_sofc_final,,2025.2.3,None,2026-04-02 15h00.44.486796 +0200,
,98,0,98,,,,None,None,,,,,,,,,,,,,98,0,98,0,1460.1372610830003,,,,,,,,,,,,,,,clips/clip_claude_16_sub_1.mp4,audios/clip_claude_16_sub_1.mp3,audiovisual,[8.758444208011497],None,None,,,,,,108,A,2026-04-02_15h00.43.580,exp_sofc_final,,2025.2.3,None,2026-04-02 15h00.44.486796 +0200,
,99,0,99,,,,2,None,4.946376666979631,None,,,,,,,,,,,99,0,99,0,1472.0930746669765,,,,,,,,,,,,,,,clips/clip_herz_05_sub_0.mp4,audios/silence.mp3,visual,[5.870246625010623],2,None,2,4.946376666979631,None,,,108,A,2026-04-02_15h00.43.580,exp_sofc_final,,2025.2.3,None,2026-04-02 15h00.44.486796 +0200,
,100,0,100,,,,None,None,,,,,,,,,,,,,100,0,100,0,1488.213277791976,,,,,,,,,,,,,,,clips/clip_wurst_04_sub_2.mp4,audios/silence.mp3,visual,"[4.19842229099595, 7.79034079099074]",None,None,,,,,,108,A,2026-04-02_15h00.43.580,exp_sofc_final,,2025.2.3,None,2026-04-02 15h00.44.486796 +0200,
,101,0,101,,,,None,None,,,,,,,,,,,,,101,0,101,0,1500.6015857919992,,,,,,,,,,,,,,,clips/clip_hund_14_nosub_2.mp4,audios/clip_hund_14_nosub_2.mp3,audiovisual,[6.01835716702044],None,None,,,,,,108,A,2026-04-02_15h00.43.580,exp_sofc_final,,2025.2.3,None,2026-04-02 15h00.44.486796 +0200,
,102,0,102,,,,None,None,,,,,,,,,,,,,102,0,102,0,1511.2852353329945,,,,,,,,,,,,,,,clips/clip_holo_13_sub_1.mp4,audios/clip_holo_13_sub_1.mp3,audiovisual,[4.216216000000713],None,None,,,,,,108,A,2026-04-02_15h00.43.580,exp_sofc_final,,2025.2.3,None,2026-04-02 15h00.44.486796 +0200,
,103,0,103,,,,None,None,,,,,,,,,,,,,103,0,103,0,1523.8817807079758,,,,,,,,,,,,,,,clips/clip_weißt_19_sub_1.mp4,audios/silence.mp3,visual,[],None,None,,,,,,108,A,2026-04-02_15h00.43.580,exp_sofc_final,,2025.2.3,None,2026-04-02 15h00.44.486796 +0200,
,104,0,104,,,,None,None,,,,,,,,,,,,,104,0,104,0,1534.6951079579885,,,,,,,,,,,,,,,clips/clip_wurst_24_nosub_1.mp4,audios/clip_wurst_24_nosub_1.mp3,audiovisual,[],None,None,,,,,,108,A,2026-04-02_15h00.43.580,exp_sofc_final,,2025.2.3,None,2026-04-02 15h00.44.486796 +0200,
,105,0,105,,,,1,None,3.1846588749904186,None,,,,,,,,,,,105,0,105,0,1546.770607457991,,,,,,,,,,,,,,,clips/clip_lied_12_sub_0.mp4,audios/silence.mp3,visual,[],1,None,1,3.1846588749904186,None,,,108,A,2026-04-02_15h00.43.580,exp_sofc_final,,2025.2.3,None,2026-04-02 15h00.44.486796 +0200,
,106,0,106,,,,None,None,,,,,,,,,,,,,106,0,106,0,1559.7969291249756,,,,,,,,,,,,,,,clips/clip_hund_21_nosub_1.mp4,audios/silence.mp3,visual,[],None,None,,,,,,108,A,2026-04-02_15h00.43.580,exp_sofc_final,,2025.2.3,None,2026-04-02 15h00.44.486796 +0200,
,107,0,107,,,,None,None,,,,,,,,,,,,,107,0,107,0,1570.5738639169722,,,,,,,,,,,,,,,clips/clip_wurst_01_nosub_0.mp4,audios/silence.mp3,visual,[],None,None,,,,,,108,A,2026-04-02_15h00.43.580,exp_sofc_final,,2025.2.3,None,2026-04-02 15h00.44.486796 +0200,
,108,0,108,,,,None,None,,,,,,,,,,,,,108,0,108,0,1581.2934889169992,,,,,,,,,,,,,,,clips/clip_wurst_22_sub_0.mp4,audios/clip_wurst_22_sub_0.mp3,audiovisual,[],None,None,,,,,,108,A,2026-04-02_15h00.43.580,exp_sofc_final,,2025.2.3,None,2026-04-02 15h00.44.486796 +0200,
,109,0,109,,,,3,None,3.342794625001261,None,,,,,,,,,,,109,0,109,0,1593.7419344169903,,,,,,,,,,,,,,,clips/clip_lied_10_nosub_1.mp4,audios/silence.mp3,visual,"[0.2993262080126442, 4.266232708003372]",3,None,3,3.342794625001261,None,,,108,A,2026-04-02_15h00.43.580,exp_sofc_final,,2025.2.3,None,2026-04-02 15h00.44.486796 +0200,
,110,0,110,,,,None,None,,,,,,,,,,,,,110,0,110,0,1609.425022166979,,,,,,,,,,,,,,,clips/clip_wurst_15_nosub_2.mp4,audios/silence.mp3,visual,"[5.2643402500252705, 7.692192957998486]",None,None,,,,,,108,A,2026-04-02_15h00.43.580,exp_sofc_final,,2025.2.3,None,2026-04-02 15h00.44.486796 +0200,
,111,0,111,,,,None,None,,,,,,,,,,,,,111,0,111,0,1619.639587166981,,,,,,,,,,,,,,,clips/clip_claude_06_nosub_1.mp4,audios/clip_claude_06_nosub_1.mp3,audiovisual,[3.939648625004338],None,None,,,,,,108,A,2026-04-02_15h00.43.580,exp_sofc_final,,2025.2.3,None,2026-04-02 15h00.44.486796 +0200,
,112,0,112,,,,None,None,,,,,,,,,,,,,112,0,112,0,1632.983544082992,,,,,,,,,,,,,,,clips/clip_wurst_16_nosub_0.mp4,audios/clip_wurst_16_nosub_0.mp3,audiovisual,[],None,None,,,,,,108,A,2026-04-02_15h00.43.580,exp_sofc_final,,2025.2.3,None,2026-04-02 15h00.44.486796 +0200,
,113,0,113,,,,None,None,,,,,,,,,,,,,113,0,113,0,1643.7650495829876,,,,,,,,,,,,,,,clips/clip_dampf_04_sub_1.mp4,audios/clip_dampf_04_sub_1.mp3,audiovisual,[4.976619707973441],None,None,,,,,,108,A,2026-04-02_15h00.43.580,exp_sofc_final,,2025.2.3,None,2026-04-02 15h00.44.486796 +0200,
,114,0,114,,,,None,None,,,,,,,,,,,,,114,0,114,0,1654.1621406669728,,,,,,,,,,,,,,,clips/clip_claude_24_sub_1.mp4,audios/clip_claude_24_sub_1.mp3,audiovisual,[6.057666000007885],None,None,,,,,,108,A,2026-04-02_15h00.43.580,exp_sofc_final,,2025.2.3,None,2026-04-02 15h00.44.486796 +0200,
,115,0,115,,,,None,None,,,,,,,,,,,,,115,0,115,0,1661.1061053749872,,,,,,,,,,,,,,,clips/clip_claude_25_nosub_0.mp4,audios/silence.mp3,visual,[],None,None,,,,,,108,A,2026-04-02_15h00.43.580,exp_sofc_final,,2025.2.3,None,2026-04-02 15h00.44.486796 +0200,
,116,0,116,,,,None,None,,,,,,,,,,,,,116,0,116,0,1672.1008944579808,,,,,,,,,,,,,,,clips/clip_claude_08_sub_0.mp4,audios/clip_claude_08_sub_0.mp3,audiovisual,[],None,None,,,,,,108,A,2026-04-02_15h00.43.580,exp_sofc_final,,2025.2.3,None,2026-04-02 15h00.44.486796 +0200,
,117,0,117,,,,None,None,,,,,,,,,,,,,117,0,117,0,1682.4797090829816,,,,,,,,,,,,,,,clips/clip_lied_21_sub_2.mp4,audios/silence.mp3,visual,"[4.968742541997926, 10.58159537499887]",None,None,,,,,,108,A,2026-04-02_15h00.43.580,exp_sofc_final,,2025.2.3,None,2026-04-02 15h00.44.486796 +0200,
,118,0,118,,,,3,None,2.377490042010322,None,,,,,,,,,,,118,0,118,0,1694.7464809579833,,,,,,,,,,,,,,,clips/clip_hund_27_nosub_1.mp4,audios/silence.mp3,visual,"[4.50295962500968, 7.537902874988504]",3,None,3,2.377490042010322,None,,,108,A,2026-04-02_15h00.43.580,exp_sofc_final,,2025.2.3,None,2026-04-02 15h00.44.486796 +0200,
,119,0,119,,,,None,space,,,38.081062167009804,None,,,,,,,,,119,0,119,0,1708.1606297919934,,,,,,,,,,,,,,,clips/clip_hund_01_sub_0.mp4,audios/silence.mp3,visual,[],None,space,,,,38.081062167009804,None,108,A,2026-04-02_15h00.43.580,exp_sofc_final,,2025.2.3,None,2026-04-02 15h00.44.486796 +0200,
,120,0,120,,,,None,None,,,,,,,,,,,,,120,0,120,0,1757.8700541669969,,,,,,,,,,,,,,,clips/clip_wurst_11_nosub_0.mp4,audios/silence.mp3,visual,[],None,None,,,,,,108,A,2026-04-02_15h00.43.580,exp_sofc_final,,2025.2.3,None,2026-04-02 15h00.44.486796 +0200,
,121,0,121,,,,None,None,,,,,,,,,,,,,121,0,121,0,1770.6001169169904,,,,,,,,,,,,,,,clips/clip_wurst_21_sub_0.mp4,audios/silence.mp3,visual,[],None,None,,,,,,108,A,2026-04-02_15h00.43.580,exp_sofc_final,,2025.2.3,None,2026-04-02 15h00.44.486796 +0200,
,122,0,122,,,,None,None,,,,,,,,,,,,,122,0,122,0,1781.9083198749868,,,,,,,,,,,,,,,clips/clip_wurst_03_nosub_1.mp4,audios/clip_wurst_03_nosub_1.mp3,audiovisual,[4.409294708981179],None,None,,,,,,108,A,2026-04-02_15h00.43.580,exp_sofc_final,,2025.2.3,None,2026-04-02 15h00.44.486796 +0200,
,123,0,123,,,,None,None,,,,,,,,,,,,,123,0,123,0,1794.5996252919722,,,,,,,,,,,,,,,clips/clip_lied_03_nosub_1.mp4,audios/clip_lied_03_nosub_1.mp3,audiovisual,[4.370787874999223],None,None,,,,,,108,A,2026-04-02_15h00.43.580,exp_sofc_final,,2025.2.3,None,2026-04-02 15h00.44.486796 +0200,
,124,0,124,,,,1,None,12.827958542009583,None,,,,,,,,,,,124,0,124,0,1805.8585536249739,,,,,,,,,,,,,,,clips/clip_wurst_27_nosub_1.mp4,audios/silence.mp3,visual,[5.8928562910004985],1,None,1,12.827958542009583,None,,,108,A,2026-04-02_15h00.43.580,exp_sofc_final,,2025.2.3,None,2026-04-02 15h00.44.486796 +0200,
,125,0,125,,,,None,None,,,,,,,,,,,,,125,0,125,0,1829.7365512919787,,,,,,,,,,,,,,,clips/clip_claude_26_nosub_0.mp4,audios/clip_claude_26_nosub_0.mp3,audiovisual,[4.225312833004864],None,None,,,,,,108,A,2026-04-02_15h00.43.580,exp_sofc_final,,2025.2.3,None,2026-04-02 15h00.44.486796 +0200,
,126,0,126,,,,None,None,,,,,,,,,,,,,126,0,126,0,1841.3857568749809,,,,,,,,,,,,,,,clips/clip_hund_13_nosub_1.mp4,audios/silence.mp3,visual,[5.79120174999116],None,None,,,,,,108,A,2026-04-02_15h00.43.580,exp_sofc_final,,2025.2.3,None,2026-04-02 15h00.44.486796 +0200,
,127,0,127,,,,None,None,,,,,,,,,,,,,127,0,127,0,1853.9223766669747,,,,,,,,,,,,,,,clips/clip_holo_05_sub_2.mp4,audios/clip_holo_05_sub_2.mp3,audiovisual,[7.0238087920006365],None,None,,,,,,108,A,2026-04-02_15h00.43.580,exp_sofc_final,,2025.2.3,None,2026-04-02 15h00.44.486796 +0200,
,128,0,128,,,,None,None,,,,,,,,,,,,,128,0,128,0,1863.8181576249772,,,,,,,,,,,,,,,clips/clip_wurst_34_sub_2.mp4,audios/clip_wurst_34_sub_2.mp3,audiovisual,"[4.173310209007468, 7.917463374993531]",None,None,,,,,,108,A,2026-04-02_15h00.43.580,exp_sofc_final,,2025.2.3,None,2026-04-02 15h00.44.486796 +0200,
,129,0,129,,,,None,None,,,,,,,,,,,,,129,0,129,0,1873.1319312919804,,,,,,,,,,,,,,,clips/clip_weißt_02_nosub_0.mp4,audios/clip_weißt_02_nosub_0.mp3,audiovisual,[],None,None,,,,,,108,A,2026-04-02_15h00.43.580,exp_sofc_final,,2025.2.3,None,2026-04-02 15h00.44.486796 +0200,
,130,0,130,,,,None,None,,,,,,,,,,,,,130,0,130,0,1883.9245299169852,,,,,,,,,,,,,,,clips/clip_claude_12_sub_0.mp4,audios/clip_claude_12_sub_0.mp3,audiovisual,[],None,None,,,,,,108,A,2026-04-02_15h00.43.580,exp_sofc_final,,2025.2.3,None,2026-04-02 15h00.44.486796 +0200,
,131,0,131,,,,None,None,,,,,,,,,,,,,131,0,131,0,1893.9129953329975,,,,,,,,,,,,,,,clips/clip_lied_17_sub_2.mp4,audios/silence.mp3,visual,"[2.757562541984953, 7.600754582992522]",None,None,,,,,,108,A,2026-04-02_15h00.43.580,exp_sofc_final,,2025.2.3,None,2026-04-02 15h00.44.486796 +0200,
,132,0,132,,,,None,None,,,,,,,,,,,,,132,0,132,0,1904.7163681669917,,,,,,,,,,,,,,,clips/clip_wurst_07_nosub_0.mp4,audios/clip_wurst_07_nosub_0.mp3,audiovisual,[],None,None,,,,,,108,A,2026-04-02_15h00.43.580,exp_sofc_final,,2025.2.3,None,2026-04-02 15h00.44.486796 +0200,
,133,0,133,,,,None,None,,,,,,,,,,,,,133,0,133,0,1915.4833424579992,,,,,,,,,,,,,,,clips/clip_hund_17_nosub_1.mp4,audios/silence.mp3,visual,[9.950022541015642],None,None,,,,,,108,A,2026-04-02_15h00.43.580,exp_sofc_final,,2025.2.3,None,2026-04-02 15h00.44.486796 +0200,
,134,0,134,,,,None,None,,,,,,,,,,,,,134,0,134,0,1928.5723297919903,,,,,,,,,,,,,,,clips/clip_hund_22_nosub_1.mp4,audios/clip_hund_22_nosub_1.mp3,audiovisual,[8.459548124985304],None,None,,,,,,108,A,2026-04-02_15h00.43.580,exp_sofc_final,,2025.2.3,None,2026-04-02 15h00.44.486796 +0200,
,135,0,135,,,,None,None,,,,,,,,,,,,,135,0,135,0,1939.3447347079928,,,,,,,,,,,,,,,clips/clip_holo_28_nosub_0.mp4,audios/clip_holo_28_nosub_0.mp3,audiovisual,[],None,None,,,,,,108,A,2026-04-02_15h00.43.580,exp_sofc_final,,2025.2.3,None,2026-04-02 15h00.44.486796 +0200,
,136,0,136,,,,None,None,,,,,,,,,,,,,136,0,136,0,1948.6210104169731,,,,,,,,,,,,,,,clips/clip_hund_19_sub_0.mp4,audios/silence.mp3,visual,[],None,None,,,,,,108,A,2026-04-02_15h00.43.580,exp_sofc_final,,2025.2.3,None,2026-04-02 15h00.44.486796 +0200,
,137,0,137,,,,None,None,,,,,,,,,,,,,137,0,137,0,1960.7641713749908,,,,,,,,,,,,,,,clips/clip_wurst_32_nosub_1.mp4,audios/clip_wurst_32_nosub_1.mp3,audiovisual,[7.614063417015132],None,None,,,,,,108,A,2026-04-02_15h00.43.580,exp_sofc_final,,2025.2.3,None,2026-04-02 15h00.44.486796 +0200,
,138,0,138,,,,None,None,,,,,,,,,,,,,138,0,138,0,1972.1592230829992,,,,,,,,,,,,,,,clips/clip_holo_26_sub_2.mp4,audios/clip_holo_26_sub_2.mp3,audiovisual,"[5.985815124993678, 8.749858416995266]",None,None,,,,,,108,A,2026-04-02_15h00.43.580,exp_sofc_final,,2025.2.3,None,2026-04-02 15h00.44.486796 +0200,
,139,0,139,,,,None,None,,,,,,,,,,,,,139,0,139,0,1982.1111524169974,,,,,,,,,,,,,,,clips/clip_hund_07_sub_1.mp4,audios/silence.mp3,visual,[6.5438428329944145],None,None,,,,,,108,A,2026-04-02_15h00.43.580,exp_sofc_final,,2025.2.3,None,2026-04-02 15h00.44.486796 +0200,
,140,0,140,,,,None,None,,,,,,,,,,,,,140,0,140,0,1994.4939478749875,,,,,,,,,,,,,,,clips/clip_wurst_28_nosub_1.mp4,audios/clip_wurst_28_nosub_1.mp3,audiovisual,[],None,None,,,,,,108,A,2026-04-02_15h00.43.580,exp_sofc_final,,2025.2.3,None,2026-04-02 15h00.44.486796 +0200,
,141,0,141,,,,None,None,,,,,,,,,,,,,141,0,141,0,2005.583868582995,,,,,,,,,,,,,,,clips/clip_wurst_05_sub_0.mp4,audios/clip_wurst_05_sub_0.mp3,audiovisual,[],None,None,,,,,,108,A,2026-04-02_15h00.43.580,exp_sofc_final,,2025.2.3,None,2026-04-02 15h00.44.486796 +0200,
,142,0,142,,,,None,None,,,,,,,,,,,,,142,0,142,0,2015.0286218329857,,,,,,,,,,,,,,,clips/clip_holo_22_nosub_1.mp4,audios/silence.mp3,visual,[9.161012041004142],None,None,,,,,,108,A,2026-04-02_15h00.43.580,exp_sofc_final,,2025.2.3,None,2026-04-02 15h00.44.486796 +0200,
,143,0,143,,,,None,None,,,,,,,,,,,,,143,0,143,0,2025.0359789169743,,,,,,,,,,,,,,,clips/clip_weißt_20_sub_1.mp4,audios/clip_weißt_20_sub_1.mp3,audiovisual,[7.871014667005511],None,None,,,,,,108,A,2026-04-02_15h00.43.580,exp_sofc_final,,2025.2.3,None,2026-04-02 15h00.44.486796 +0200,
,144,0,144,,,,1,None,2.152891042002011,None,,,,,,,,,,,144,0,144,0,2035.6532580829808,,,,,,,,,,,,,,,clips/clip_herz_16_nosub_0.mp4,audios/clip_herz_16_nosub_0.mp3,audiovisual,[],1,None,1,2.152891042002011,None,,,108,A,2026-04-02_15h00.43.580,exp_sofc_final,,2025.2.3,None,2026-04-02 15h00.44.486796 +0200,
,145,0,145,,,,None,None,,,,,,,,,,,,,145,0,145,0,2047.5999280419783,,,,,,,,,,,,,,,clips/clip_lied_04_sub_0.mp4,audios/silence.mp3,visual,[],None,None,,,,,,108,A,2026-04-02_15h00.43.580,exp_sofc_final,,2025.2.3,None,2026-04-02 15h00.44.486796 +0200,
,146,0,146,,,,None,None,,,,,,,,,,,,,146,0,146,0,2059.366014249972,,,,,,,,,,,,,,,clips/clip_hund_16_sub_1.mp4,audios/clip_hund_16_sub_1.mp3,audiovisual,[],None,None,,,,,,108,A,2026-04-02_15h00.43.580,exp_sofc_final,,2025.2.3,None,2026-04-02 15h00.44.486796 +0200,
,147,0,147,,,,4,None,4.4848287499917205,None,,,,,,,,,,,147,0,147,0,2070.9974101669795,,,,,,,,,,,,,,,clips/clip_holo_07_nosub_0.mp4,audios/clip_holo_07_nosub_0.mp3,audiovisual,[],4,None,4,4.4848287499917205,None,,,108,A,2026-04-02_15h00.43.580,exp_sofc_final,,2025.2.3,None,2026-04-02 15h00.44.486796 +0200,
,148,0,148,,,,None,None,,,,,,,,,,,,,148,0,148,0,2085.689791541983,,,,,,,,,,,,,,,clips/clip_weißt_08_sub_0.mp4,audios/silence.mp3,visual,[8.073691249999683],None,None,,,,,,108,A,2026-04-02_15h00.43.580,exp_sofc_final,,2025.2.3,None,2026-04-02 15h00.44.486796 +0200,
,149,0,149,,,,None,None,,,,,,,,,,,,,149,0,149,0,2096.660633291991,,,,,,,,,,,,,,,clips/clip_dampf_05_nosub_2.mp4,audios/silence.mp3,visual,"[3.386471875011921, 8.96146808299818]",None,None,,,,,,108,A,2026-04-02_15h00.43.580,exp_sofc_final,,2025.2.3,None,2026-04-02 15h00.44.486796 +0200,
,150,0,150,,,,None,None,,,,,,,,,,,,,150,0,150,0,2106.1444884169905,,,,,,,,,,,,,,,clips/clip_herz_08_nosub_0.mp4,audios/clip_herz_08_nosub_0.mp3,audiovisual,"[5.194758625002578, 9.52767604100518]",None,None,,,,,,108,A,2026-04-02_15h00.43.580,exp_sofc_final,,2025.2.3,None,2026-04-02 15h00.44.486796 +0200,
,151,0,151,,,,4,None,3.0796517920098267,None,,,,,,,,,,,151,0,151,0,2118.952892166999,,,,,,,,,,,,,,,clips/clip_hund_08_sub_1.mp4,audios/clip_hund_08_sub_1.mp3,audiovisual,"[1.1760341659828555, 1.4129884160065558]",4,None,4,3.0796517920098267,None,,,108,A,2026-04-02_15h00.43.580,exp_sofc_final,,2025.2.3,None,2026-04-02 15h00.44.486796 +0200,
,152,0,152,,,,None,None,,,,,,,,,,,,,152,0,152,0,2132.8369950419874,,,,,,,,,,,,,,,clips/clip_wurst_17_sub_0.mp4,audios/silence.mp3,visual,[],None,None,,,,,,108,A,2026-04-02_15h00.43.580,exp_sofc_final,,2025.2.3,None,2026-04-02 15h00.44.486796 +0200,
,153,0,153,,,,None,None,,,,,,,,,,,,,153,0,153,0,2141.6308002079895,,,,,,,,,,,,,,,clips/clip_herz_10_sub_0.mp4,audios/clip_herz_10_sub_0.mp3,audiovisual,[],None,None,,,,,,108,A,2026-04-02_15h00.43.580,exp_sofc_final,,2025.2.3,None,2026-04-02 15h00.44.486796 +0200,
,154,0,154,,,,None,None,,,,,,,,,,,,,154,0,154,0,2152.452696249995,,,,,,,,,,,,,,,clips/clip_holo_01_sub_1.mp4,audios/clip_holo_01_sub_1.mp3,audiovisual,[4.351112375006778],None,None,,,,,,108,A,2026-04-02_15h00.43.580,exp_sofc_final,,2025.2.3,None,2026-04-02 15h00.44.486796 +0200,
,155,0,155,,,,2,None,5.6676299999817275,None,,,,,,,,,,,155,0,155,0,2162.411411874986,,,,,,,,,,,,,,,clips/clip_claude_29_sub_0.mp4,audios/clip_claude_29_sub_0.mp3,audiovisual,[],2,None,2,5.6676299999817275,None,,,108,A,2026-04-02_15h00.43.580,exp_sofc_final,,2025.2.3,None,2026-04-02 15h00.44.486796 +0200,
,156,0,156,,,,None,None,,,,,,,,,,,,,156,0,156,0,2178.934485124977,,,,,,,,,,,,,,,clips/clip_holo_24_sub_2.mp4,audios/silence.mp3,visual,[9.098738625005353],None,None,,,,,,108,A,2026-04-02_15h00.43.580,exp_sofc_final,,2025.2.3,None,2026-04-02 15h00.44.486796 +0200,
,157,0,157,,,,1,None,2.3004869160067756,None,,,,,,,,,,,157,0,157,0,2189.483051624993,,,,,,,,,,,,,,,clips/clip_claude_21_nosub_1.mp4,audios/silence.mp3,visual,[9.66252870898461],1,None,1,2.3004869160067756,None,,,108,A,2026-04-02_15h00.43.580,exp_sofc_final,,2025.2.3,None,2026-04-02 15h00.44.486796 +0200,
,158,0,158,,,,None,None,,,,,,,,,,,,,158,0,158,0,2204.8661104169732,,,,,,,,,,,,,,,clips/clip_hund_10_nosub_0.mp4,audios/clip_hund_10_nosub_0.mp3,audiovisual,[10.125360874983016],None,None,,,,,,108,A,2026-04-02_15h00.43.580,exp_sofc_final,,2025.2.3,None,2026-04-02 15h00.44.486796 +0200,
,159,0,159,,,,None,None,,,,,,,,,,,,,159,0,159,0,2215.1207461249724,,,,,,,,,,,,,,,clips/clip_lied_22_sub_1.mp4,audios/clip_lied_22_sub_1.mp3,audiovisual,[5.9262467910011765],None,None,,,,,,108,A,2026-04-02_15h00.43.580,exp_sofc_final,,2025.2.3,None,2026-04-02 15h00.44.486796 +0200,
,160,0,160,,,,None,None,,,,,,,,,,,,,160,0,160,0,2226.415241999988,,,,,,,,,,,,,,,clips/clip_herz_12_nosub_0.mp4,audios/clip_herz_12_nosub_0.mp3,audiovisual,[5.714366708998568],None,None,,,,,,108,A,2026-04-02_15h00.43.580,exp_sofc_final,,2025.2.3,None,2026-04-02 15h00.44.486796 +0200,
,161,0,161,,,,2,None,3.5708418329886626,None,,,,,,,,,,,161,0,161,0,2236.2815799169766,,,,,,,,,,,,,,,clips/clip_lied_05_sub_0.mp4,audios/clip_lied_05_sub_0.mp3,audiovisual,[],2,None,2,3.5708418329886626,None,,,108,A,2026-04-02_15h00.43.580,exp_sofc_final,,2025.2.3,None,2026-04-02 15h00.44.486796 +0200,
,162,0,162,,,,None,None,,,,,,,,,,,,,162,0,162,0,2250.043334166985,,,,,,,,,,,,,,,clips/clip_weißt_30_sub_2.mp4,audios/clip_weißt_30_sub_2.mp3,audiovisual,"[3.0064619169861544, 11.961239166994346]",None,None,,,,,,108,A,2026-04-02_15h00.43.580,exp_sofc_final,,2025.2.3,None,2026-04-02 15h00.44.486796 +0200,
,163,0,163,,,,None,None,,,,,,,,,,,,,163,0,163,0,2262.78333424998,,,,,,,,,,,,,,,clips/clip_wurst_06_nosub_2.mp4,audios/silence.mp3,visual,"[2.8880055420158897, 8.18340341700241]",None,None,,,,,,108,A,2026-04-02_15h00.43.580,exp_sofc_final,,2025.2.3,None,2026-04-02 15h00.44.486796 +0200,
,164,0,164,,,,None,None,,,,,,,,,,,,,164,0,164,0,2274.686830957973,,,,,,,,,,,,,,,clips/clip_holo_14_nosub_0.mp4,audios/silence.mp3,visual,[],None,None,,,,,,108,A,2026-04-02_15h00.43.580,exp_sofc_final,,2025.2.3,None,2026-04-02 15h00.44.486796 +0200,
,165,0,165,,,,None,None,,,,,,,,,,,,,165,0,165,0,2285.4709762079874,,,,,,,,,,,,,,,clips/clip_wurst_31_nosub_1.mp4,audios/silence.mp3,visual,[],None,None,,,,,,108,A,2026-04-02_15h00.43.580,exp_sofc_final,,2025.2.3,None,2026-04-02 15h00.44.486796 +0200,
,166,0,166,,,,3,None,2.9003700419852976,None,,,,,,,,,,,166,0,166,0,2297.2645381669863,,,,,,,,,,,,,,,clips/clip_weißt_11_sub_0.mp4,audios/clip_weißt_11_sub_0.mp3,audiovisual,[],3,None,3,2.9003700419852976,None,,,108,A,2026-04-02_15h00.43.580,exp_sofc_final,,2025.2.3,None,2026-04-02 15h00.44.486796 +0200,
,167,0,167,,,,3,None,2.96551583398832,None,,,,,,,,,,,167,0,167,0,2310.990120167,,,,,,,,,,,,,,,clips/clip_hund_36_sub_2.mp4,audios/silence.mp3,visual,[6.555907833011588],3,None,3,2.96551583398832,None,,,108,A,2026-04-02_15h00.43.580,exp_sofc_final,,2025.2.3,None,2026-04-02 15h00.44.486796 +0200,
,168,0,168,,,,None,None,,,,,,,,,,,,,168,0,168,0,2323.995924582996,,,,,,,,,,,,,,,clips/clip_herz_14_sub_0.mp4,audios/clip_herz_14_sub_0.mp3,audiovisual,[],None,None,,,,,,108,A,2026-04-02_15h00.43.580,exp_sofc_final,,2025.2.3,None,2026-04-02 15h00.44.486796 +0200,
,169,0,169,,,,1,None,6.819703874993138,None,,,,,,,,,,,169,0,169,0,2335.2455334579863,,,,,,,,,,,,,,,clips/clip_weißt_13_nosub_0.mp4,audios/clip_weißt_13_nosub_0.mp3,audiovisual,[],1,None,1,6.819703874993138,None,,,108,A,2026-04-02_15h00.43.580,exp_sofc_final,,2025.2.3,None,2026-04-02 15h00.44.486796 +0200,
,170,0,170,,,,None,None,,,,,,,,,,,,,170,0,170,0,2353.683002207981,,,,,,,,,,,,,,,clips/clip_lied_19_nosub_1.mp4,audios/silence.mp3,visual,[5.065400124993175],None,None,,,,,,108,A,2026-04-02_15h00.43.580,exp_sofc_final,,2025.2.3,None,2026-04-02 15h00.44.486796 +0200,
,171,0,171,,,,None,None,,,,,,,,,,,,,171,0,171,0,2365.144996582996,,,,,,,,,,,,,,,clips/clip_holo_19_nosub_1.mp4,audios/clip_holo_19_nosub_1.mp3,audiovisual,[6.786087582993787],None,None,,,,,,108,A,2026-04-02_15h00.43.580,exp_sofc_final,,2025.2.3,None,2026-04-02 15h00.44.486796 +0200,
,172,0,172,,,,None,None,,,,,,,,,,,,,172,0,172,0,2375.9768474999873,,,,,,,,,,,,,,,clips/clip_claude_22_nosub_2.mp4,audios/clip_claude_22_nosub_2.mp3,audiovisual,[8.416641957999673],None,None,,,,,,108,A,2026-04-02_15h00.43.580,exp_sofc_final,,2025.2.3,None,2026-04-02 15h00.44.486796 +0200,
,173,0,173,,,,None,None,,,,,,,,,,,,,173,0,173,0,2387.457893624989,,,,,,,,,,,,,,,clips/clip_lied_08_sub_1.mp4,audios/silence.mp3,visual,[7.504153333982686],None,None,,,,,,108,A,2026-04-02_15h00.43.580,exp_sofc_final,,2025.2.3,None,2026-04-02 15h00.44.486796 +0200,
,174,0,174,,,,None,None,,,,,,,,,,,,,174,0,174,0,2397.332449666981,,,,,,,,,,,,,,,clips/clip_hund_20_sub_0.mp4,audios/clip_hund_20_sub_0.mp3,audiovisual,[],None,None,,,,,,108,A,2026-04-02_15h00.43.580,exp_sofc_final,,2025.2.3,None,2026-04-02 15h00.44.486796 +0200,
,175,0,175,,,,None,None,,,,,,,,,,,,,175,0,175,0,2409.5984274169896,,,,,,,,,,,,,,,clips/clip_herz_03_nosub_2.mp4,audios/silence.mp3,visual,[11.25954820800689],None,None,,,,,,108,A,2026-04-02_15h00.43.580,exp_sofc_final,,2025.2.3,None,2026-04-02 15h00.44.486796 +0200,
,176,0,176,,,,None,None,,,,,,,,,,,,,176,0,176,0,2422.7568605419947,,,,,,,,,,,,,,,clips/clip_holo_06_nosub_2.mp4,audios/silence.mp3,visual,[10.354217083018739],None,None,,,,,,108,A,2026-04-02_15h00.43.580,exp_sofc_final,,2025.2.3,None,2026-04-02 15h00.44.486796 +0200,
,177,0,177,,,,None,None,,,,,,,,,,,,,177,0,177,0,2433.2843524169875,,,,,,,,,,,,,,,clips/clip_claude_15_sub_0.mp4,audios/silence.mp3,visual,[],None,None,,,,,,108,A,2026-04-02_15h00.43.580,exp_sofc_final,,2025.2.3,None,2026-04-02 15h00.44.486796 +0200,
,178,0,178,,,,None,None,,,,,,,,,,,,,178,0,178,0,2446.0559850419813,,,,,,,,,,,,,,,clips/clip_hund_23_sub_1.mp4,audios/silence.mp3,visual,[],None,None,,,,,,108,A,2026-04-02_15h00.43.580,exp_sofc_final,,2025.2.3,None,2026-04-02 15h00.44.486796 +0200,
,179,0,179,,,,None,None,,,,,,,,,,,,,179,0,179,0,2457.7714359169768,,,,,,,,,,,,,,,clips/clip_holo_09_sub_2.mp4,audios/clip_holo_09_sub_2.mp3,audiovisual,[],None,None,,,,,,108,A,2026-04-02_15h00.43.580,exp_sofc_final,,2025.2.3,None,2026-04-02 15h00.44.486796 +0200,
,,,,,,,,,,,,,,,,,,,,,,,,,,,,,,,,,,,,,,,,,,,,,,,,,,,108,A,2026-04-02_15h00.43.580,exp_sofc_final,,2025.2.3,None,2026-04-02 15h00.44.486796 +0200,
