instruction_text,thisN,thisTrialN,thisRepN,prac_attention_resp.keys,prac_attention_resp.rt,prac_attention_resp.duration,exp_atttention_resp.keys,exp_pause_resp.keys,exp_atttention_resp.rt,exp_atttention_resp.duration,exp_pause_resp.rt,exp_pause_resp.duration,instruction_trial.thisRepN,instruction_trial.thisTrialN,instruction_trial.thisN,instruction_trial.thisIndex,practice_trials.thisRepN,practice_trials.thisTrialN,practice_trials.thisN,practice_trials.thisIndex,experiment_trials.thisRepN,experiment_trials.thisTrialN,experiment_trials.thisN,experiment_trials.thisIndex,thisRow.t,notes,assigned_ls_group,slider_informed_consent.response,Practice_clip_name,Practice_video_used,Practice_audio_used,Practice_modality,Practice_subtitles,Practice_attention_check,Practice_all_cut_rts,practice_trials.prac_attention_resp.keys,Practice_correct_key_required,practice_trials.prac_attention_resp.rt,practice_trials.prac_attention_resp.duration,video_used,audio_used,condition_modality,all_cut_rts,experiment_trials.exp_atttention_resp.keys,experiment_trials.exp_pause_resp.keys,correct_key_required,experiment_trials.exp_atttention_resp.rt,experiment_trials.exp_atttention_resp.duration,experiment_trials.exp_pause_resp.rt,experiment_trials.exp_pause_resp.duration,participant,session,date,expName,expVersion,psychopyVersion,frameRate,expStart,
"Einverständniserklärung

Bitte lesen Sie die folgende Erklärung aufmerksam durch:

Ich bestätige, dass ich über 18 Jahre alt bin und ausreichend Zeit hatte, mich für die Teilnahme zu entscheiden. Ich wurde über die Erhebung, Verarbeitung und öffentliche Zugänglichmachung meiner anonymisierten Daten angemessen informiert.
Ich bin mir bewusst, dass ich das Experiment jederzeit abbrechen kann.

(Drücken Sie die Leertaste, um fortzufahren)",4,4,0,,,,,,,,,,0,4,4,4,,,,,,,,,2.5136355420108885,,0,ich stimme zu,,,,,,,,,,,,,,,,,,,,,,,112,A,2026-04-03_20h46.53.974,exp_sofc_final,,2025.2.3,None,2026-04-03 20h46.54.874622 +0200,
,,,,,,,,,,,,,,,,,,,,,,,,,,,,,,,,,,,,,,,,,,,,,,,,,,,112,A,2026-04-03_20h46.53.974,exp_sofc_final,,2025.2.3,None,2026-04-03 20h46.54.874622 +0200,
,0,0,0,None,,,,,,,,,,,,,0,0,0,0,,,,,6.02497912500985,,,,clip_hund_02_sub_1,clips/clip_hund_02_sub_1.mp4,audios/clip_hund_02_sub_1.mp3,audiovisual,sub,False,[9.161976206989493],None,,,,,,,,,,,,,,,112,A,2026-04-03_20h46.53.974,exp_sofc_final,,2025.2.3,None,2026-04-03 20h46.54.874622 +0200,
,1,0,1,4,17.02887570799794,None,,,,,,,,,,,1,0,1,0,,,,,16.135769834014354,,,,clip_weißt_10_nosub_1,clips/clip_weißt_10_nosub_1.mp4,audios/clip_weißt_10_nosub_1.mp3,audiovisual,nosub,True,[5.339835791004589],4,4,17.02887570799794,None,,,,,,,,,,,,112,A,2026-04-03_20h46.53.974,exp_sofc_final,,2025.2.3,None,2026-04-03 20h46.54.874622 +0200,
,2,0,2,None,,,,,,,,,,,,,2,0,2,0,,,,,45.02658254202106,,,,clip_wurst_09_sub_1,clips/clip_wurst_09_sub_1.mp4,audios/clip_wurst_09_sub_1.mp3,audiovisual,sub,False,[5.372146998997778],None,,,,,,,,,,,,,,,112,A,2026-04-03_20h46.53.974,exp_sofc_final,,2025.2.3,None,2026-04-03 20h46.54.874622 +0200,
,3,0,3,3,10.935217207996175,None,,,,,,,,,,,3,0,3,0,,,,,57.0653203749971,,,,clip_hund_06_nosub_0,clips/clip_hund_06_nosub_0.mp4,audios/clip_hund_06_nosub_0.mp3,audiovisual,nosub,True,[0.4838509580004029],3,1,10.935217207996175,None,,,,,,,,,,,,112,A,2026-04-03_20h46.53.974,exp_sofc_final,,2025.2.3,None,2026-04-03 20h46.54.874622 +0200,
,4,0,4,None,,,,,,,,,,,,,4,0,4,0,,,,,79.70633975000237,,,,clip_weißt_21_nosub_0,clips/clip_weißt_21_nosub_0.mp4,audios/silence.mp3,visual,nosub,False,[],None,,,,,,,,,,,,,,,112,A,2026-04-03_20h46.53.974,exp_sofc_final,,2025.2.3,None,2026-04-03 20h46.54.874622 +0200,
,5,0,5,4,19.380035498994403,None,,,,,,,,,,,5,0,5,0,,,,,90.57144604201312,,,,clip_weißt_09_sub_1,clips/clip_weißt_09_sub_1.mp4,audios/silence.mp3,visual,sub,True,"[2.0996111239946913, 6.967403374001151]",4,2,19.380035498994403,None,,,,,,,,,,,,112,A,2026-04-03_20h46.53.974,exp_sofc_final,,2025.2.3,None,2026-04-03 20h46.54.874622 +0200,
,6,0,6,2,5.8212393739959225,None,,,,,,,,,,,6,0,6,0,,,,,119.80766954200226,,,,clip_weißt_05_sub_0,clips/clip_weißt_05_sub_0.mp4,audios/clip_weißt_05_sub_0.mp3,audiovisual,sub,True,[],2,2,5.8212393739959225,None,,,,,,,,,,,,112,A,2026-04-03_20h46.53.974,exp_sofc_final,,2025.2.3,None,2026-04-03 20h46.54.874622 +0200,
,7,0,7,None,,,,,,,,,,,,,7,0,7,0,,,,,136.22367050001048,,,,clip_hund_25_sub_1,clips/clip_hund_25_sub_1.mp4,audios/silence.mp3,visual,sub,False,[6.734209999005543],None,,,,,,,,,,,,,,,112,A,2026-04-03_20h46.53.974,exp_sofc_final,,2025.2.3,None,2026-04-03 20h46.54.874622 +0200,
,8,0,8,None,,,,,,,,,,,,,8,0,8,0,,,,,145.27527583402116,,,,clip_hund_26_sub_1,clips/clip_hund_26_sub_1.mp4,audios/silence.mp3,visual,sub,False,[],None,,,,,,,,,,,,,,,112,A,2026-04-03_20h46.53.974,exp_sofc_final,,2025.2.3,None,2026-04-03 20h46.54.874622 +0200,
,9,0,9,None,,,,,,,,,,,,,9,0,9,0,,,,,155.44023754200316,,,,clip_hund_31_sub_0,clips/clip_hund_31_sub_0.mp4,audios/silence.mp3,visual,sub,False,[],None,,,,,,,,,,,,,,,112,A,2026-04-03_20h46.53.974,exp_sofc_final,,2025.2.3,None,2026-04-03 20h46.54.874622 +0200,
,10,0,10,None,,,,,,,,,,,,,10,0,10,0,,,,,164.66884283401305,,,,clip_weißt_18_nosub_1,clips/clip_weißt_18_nosub_1.mp4,audios/silence.mp3,visual,nosub,False,[6.995618415996432],None,,,,,,,,,,,,,,,112,A,2026-04-03_20h46.53.974,exp_sofc_final,,2025.2.3,None,2026-04-03 20h46.54.874622 +0200,
,11,0,11,None,,,,,,,,,,,,,11,0,11,0,,,,,177.46181233401876,,,,clip_hund_28_nosub_0,clips/clip_hund_28_nosub_0.mp4,audios/clip_hund_28_nosub_0.mp3,audiovisual,nosub,False,[],None,,,,,,,,,,,,,,,112,A,2026-04-03_20h46.53.974,exp_sofc_final,,2025.2.3,None,2026-04-03 20h46.54.874622 +0200,
,,,,,,,,,,,,,,,,,,,,,,,,,,,,,,,,,,,,,,,,,,,,,,,,,,,112,A,2026-04-03_20h46.53.974,exp_sofc_final,,2025.2.3,None,2026-04-03 20h46.54.874622 +0200,
,0,0,0,,,,None,None,,,,,,,,,,,,,0,0,0,0,209.07073554201634,,,,,,,,,,,,,,,clips/clip_claude_02_nosub_1.mp4,audios/clip_claude_02_nosub_1.mp3,audiovisual,[5.886876748991199],None,None,,,,,,112,A,2026-04-03_20h46.53.974,exp_sofc_final,,2025.2.3,None,2026-04-03 20h46.54.874622 +0200,
,1,0,1,,,,None,None,,,,,,,,,,,,,1,0,1,0,219.64528033402166,,,,,,,,,,,,,,,clips/clip_lied_05_sub_0.mp4,audios/clip_lied_05_sub_0.mp3,audiovisual,[],None,None,,,,,,112,A,2026-04-03_20h46.53.974,exp_sofc_final,,2025.2.3,None,2026-04-03 20h46.54.874622 +0200,
,2,0,2,,,,None,None,,,,,,,,,,,,,2,0,2,0,229.79015345900552,,,,,,,,,,,,,,,clips/clip_holo_15_nosub_0.mp4,audios/clip_holo_15_nosub_0.mp3,audiovisual,[6.464248415984912],None,None,,,,,,112,A,2026-04-03_20h46.53.974,exp_sofc_final,,2025.2.3,None,2026-04-03 20h46.54.874622 +0200,
,3,0,3,,,,1,None,24.48792029102333,None,,,,,,,,,,,3,0,3,0,239.73877525000717,,,,,,,,,,,,,,,clips/clip_lied_04_sub_0.mp4,audios/silence.mp3,visual,[],1,None,1,24.48792029102333,None,,,112,A,2026-04-03_20h46.53.974,exp_sofc_final,,2025.2.3,None,2026-04-03 20h46.54.874622 +0200,
,4,0,4,,,,None,None,,,,,,,,,,,,,4,0,4,0,276.0426467920188,,,,,,,,,,,,,,,clips/clip_herz_16_nosub_0.mp4,audios/clip_herz_16_nosub_0.mp3,audiovisual,[],None,None,,,,,,112,A,2026-04-03_20h46.53.974,exp_sofc_final,,2025.2.3,None,2026-04-03 20h46.54.874622 +0200,
,5,0,5,,,,None,None,,,,,,,,,,,,,5,0,5,0,285.8247643340146,,,,,,,,,,,,,,,clips/clip_herz_10_sub_0.mp4,audios/clip_herz_10_sub_0.mp3,audiovisual,[],None,None,,,,,,112,A,2026-04-03_20h46.53.974,exp_sofc_final,,2025.2.3,None,2026-04-03 20h46.54.874622 +0200,
,6,0,6,,,,None,None,,,,,,,,,,,,,6,0,6,0,296.59301820900873,,,,,,,,,,,,,,,clips/clip_claude_07_sub_0.mp4,audios/silence.mp3,visual,[],None,None,,,,,,112,A,2026-04-03_20h46.53.974,exp_sofc_final,,2025.2.3,None,2026-04-03 20h46.54.874622 +0200,
,7,0,7,,,,4,None,18.212758125009714,None,,,,,,,,,,,7,0,7,0,307.408437917009,,,,,,,,,,,,,,,clips/clip_hund_05_nosub_0.mp4,audios/clip_hund_05_nosub_0.mp3,audiovisual,[4.552300083014416],4,None,3,18.212758125009714,None,,,112,A,2026-04-03_20h46.53.974,exp_sofc_final,,2025.2.3,None,2026-04-03 20h46.54.874622 +0200,
,8,0,8,,,,None,None,,,,,,,,,,,,,8,0,8,0,337.43437254201854,,,,,,,,,,,,,,,clips/clip_lied_21_sub_2.mp4,audios/silence.mp3,visual,[5.498489499004791],None,None,,,,,,112,A,2026-04-03_20h46.53.974,exp_sofc_final,,2025.2.3,None,2026-04-03 20h46.54.874622 +0200,
,9,0,9,,,,None,None,,,,,,,,,,,,,9,0,9,0,349.7132212500146,,,,,,,,,,,,,,,clips/clip_hund_32_sub_1.mp4,audios/clip_hund_32_sub_1.mp3,audiovisual,[6.307754081994062],None,None,,,,,,112,A,2026-04-03_20h46.53.974,exp_sofc_final,,2025.2.3,None,2026-04-03 20h46.54.874622 +0200,
,10,0,10,,,,None,None,,,,,,,,,,,,,10,0,10,0,360.5057217090216,,,,,,,,,,,,,,,clips/clip_lied_16_nosub_2.mp4,audios/clip_lied_16_nosub_2.mp3,audiovisual,[3.8953385410131887],None,None,,,,,,112,A,2026-04-03_20h46.53.974,exp_sofc_final,,2025.2.3,None,2026-04-03 20h46.54.874622 +0200,
,11,0,11,,,,1,None,3.555786832992453,None,,,,,,,,,,,11,0,11,0,371.90447350000613,,,,,,,,,,,,,,,clips/clip_claude_14_nosub_0.mp4,audios/clip_claude_14_nosub_0.mp3,audiovisual,[],1,None,1,3.555786832992453,None,,,112,A,2026-04-03_20h46.53.974,exp_sofc_final,,2025.2.3,None,2026-04-03 20h46.54.874622 +0200,
,12,0,12,,,,None,None,,,,,,,,,,,,,12,0,12,0,387.38398379200953,,,,,,,,,,,,,,,clips/clip_claude_05_nosub_2.mp4,audios/silence.mp3,visual,[],None,None,,,,,,112,A,2026-04-03_20h46.53.974,exp_sofc_final,,2025.2.3,None,2026-04-03 20h46.54.874622 +0200,
,13,0,13,,,,1,None,4.0379991660011,None,,,,,,,,,,,13,0,13,0,399.44697916699806,,,,,,,,,,,,,,,clips/clip_hund_16_sub_1.mp4,audios/clip_hund_16_sub_1.mp3,audiovisual,[],1,None,4,4.0379991660011,None,,,112,A,2026-04-03_20h46.53.974,exp_sofc_final,,2025.2.3,None,2026-04-03 20h46.54.874622 +0200,
,14,0,14,,,,None,None,,,,,,,,,,,,,14,0,14,0,415.113138375018,,,,,,,,,,,,,,,clips/clip_claude_03_sub_1.mp4,audios/silence.mp3,visual,[5.327606540988199],None,None,,,,,,112,A,2026-04-03_20h46.53.974,exp_sofc_final,,2025.2.3,None,2026-04-03 20h46.54.874622 +0200,
,15,0,15,,,,None,None,,,,,,,,,,,,,15,0,15,0,427.3794194590009,,,,,,,,,,,,,,,clips/clip_claude_15_sub_0.mp4,audios/silence.mp3,visual,[],None,None,,,,,,112,A,2026-04-03_20h46.53.974,exp_sofc_final,,2025.2.3,None,2026-04-03 20h46.54.874622 +0200,
,16,0,16,,,,None,None,,,,,,,,,,,,,16,0,16,0,440.1797172499937,,,,,,,,,,,,,,,clips/clip_hund_19_sub_0.mp4,audios/silence.mp3,visual,[],None,None,,,,,,112,A,2026-04-03_20h46.53.974,exp_sofc_final,,2025.2.3,None,2026-04-03 20h46.54.874622 +0200,
,17,0,17,,,,None,None,,,,,,,,,,,,,17,0,17,0,452.3051384590217,,,,,,,,,,,,,,,clips/clip_holo_20_sub_1.mp4,audios/silence.mp3,visual,[],None,None,,,,,,112,A,2026-04-03_20h46.53.974,exp_sofc_final,,2025.2.3,None,2026-04-03 20h46.54.874622 +0200,
,18,0,18,,,,None,None,,,,,,,,,,,,,18,0,18,0,462.48862525000004,,,,,,,,,,,,,,,clips/clip_wurst_31_nosub_1.mp4,audios/silence.mp3,visual,[],None,None,,,,,,112,A,2026-04-03_20h46.53.974,exp_sofc_final,,2025.2.3,None,2026-04-03 20h46.54.874622 +0200,
,19,0,19,,,,None,None,,,,,,,,,,,,,19,0,19,0,474.3225887090084,,,,,,,,,,,,,,,clips/clip_weißt_25_sub_1.mp4,audios/silence.mp3,visual,[],None,None,,,,,,112,A,2026-04-03_20h46.53.974,exp_sofc_final,,2025.2.3,None,2026-04-03 20h46.54.874622 +0200,
,20,0,20,,,,None,None,,,,,,,,,,,,,20,0,20,0,487.1079529169947,,,,,,,,,,,,,,,clips/clip_hund_09_nosub_2.mp4,audios/silence.mp3,visual,"[5.553897957986919, 10.97499004099518]",None,None,,,,,,112,A,2026-04-03_20h46.53.974,exp_sofc_final,,2025.2.3,None,2026-04-03 20h46.54.874622 +0200,
,21,0,21,,,,None,None,,,,,,,,,,,,,21,0,21,0,499.44646691699745,,,,,,,,,,,,,,,clips/clip_dampf_05_nosub_2.mp4,audios/silence.mp3,visual,"[3.565597708016867, 8.653274416021304]",None,None,,,,,,112,A,2026-04-03_20h46.53.974,exp_sofc_final,,2025.2.3,None,2026-04-03 20h46.54.874622 +0200,
,22,0,22,,,,None,None,,,,,,,,,,,,,22,0,22,0,508.91425512501155,,,,,,,,,,,,,,,clips/clip_wurst_13_sub_0.mp4,audios/silence.mp3,visual,[7.901064456993481],None,None,,,,,,112,A,2026-04-03_20h46.53.974,exp_sofc_final,,2025.2.3,None,2026-04-03 20h46.54.874622 +0200,
,23,0,23,,,,2,None,3.5814068320032675,None,,,,,,,,,,,23,0,23,0,519.3343885000213,,,,,,,,,,,,,,,clips/clip_weißt_06_nosub_0.mp4,audios/silence.mp3,visual,[6.09642949901172],2,None,2,3.5814068320032675,None,,,112,A,2026-04-03_20h46.53.974,exp_sofc_final,,2025.2.3,None,2026-04-03 20h46.54.874622 +0200,
,24,0,24,,,,None,None,,,,,,,,,,,,,24,0,24,0,534.0672578340163,,,,,,,,,,,,,,,clips/clip_hund_12_sub_1.mp4,audios/clip_hund_12_sub_1.mp3,audiovisual,[10.529850916005671],None,None,,,,,,112,A,2026-04-03_20h46.53.974,exp_sofc_final,,2025.2.3,None,2026-04-03 20h46.54.874622 +0200,
,25,0,25,,,,None,None,,,,,,,,,,,,,25,0,25,0,546.0075276250136,,,,,,,,,,,,,,,clips/clip_hund_36_sub_2.mp4,audios/silence.mp3,visual,"[2.9618097499769647, 6.181796457996825]",None,None,,,,,,112,A,2026-04-03_20h46.53.974,exp_sofc_final,,2025.2.3,None,2026-04-03 20h46.54.874622 +0200,
,26,0,26,,,,None,None,,,,,,,,,,,,,26,0,26,0,555.9368122089945,,,,,,,,,,,,,,,clips/clip_claude_17_nosub_1.mp4,audios/silence.mp3,visual,[10.33464204100892],None,None,,,,,,112,A,2026-04-03_20h46.53.974,exp_sofc_final,,2025.2.3,None,2026-04-03 20h46.54.874622 +0200,
,27,0,27,,,,None,None,,,,,,,,,,,,,27,0,27,0,568.2143300000171,,,,,,,,,,,,,,,clips/clip_hund_11_sub_1.mp4,audios/silence.mp3,visual,[6.3028315829869825],None,None,,,,,,112,A,2026-04-03_20h46.53.974,exp_sofc_final,,2025.2.3,None,2026-04-03 20h46.54.874622 +0200,
,28,0,28,,,,None,None,,,,,,,,,,,,,28,0,28,0,578.7073596669943,,,,,,,,,,,,,,,clips/clip_hund_10_nosub_0.mp4,audios/clip_hund_10_nosub_0.mp3,audiovisual,[],None,None,,,,,,112,A,2026-04-03_20h46.53.974,exp_sofc_final,,2025.2.3,None,2026-04-03 20h46.54.874622 +0200,
,29,0,29,,,,None,None,,,,,,,,,,,,,29,0,29,0,588.9997577090107,,,,,,,,,,,,,,,clips/clip_weißt_13_nosub_0.mp4,audios/clip_weißt_13_nosub_0.mp3,audiovisual,[11.493852415995207],None,None,,,,,,112,A,2026-04-03_20h46.53.974,exp_sofc_final,,2025.2.3,None,2026-04-03 20h46.54.874622 +0200,
,30,0,30,,,,None,None,,,,,,,,,,,,,30,0,30,0,600.5832782500074,,,,,,,,,,,,,,,clips/clip_claude_25_nosub_0.mp4,audios/silence.mp3,visual,[],None,None,,,,,,112,A,2026-04-03_20h46.53.974,exp_sofc_final,,2025.2.3,None,2026-04-03 20h46.54.874622 +0200,
,31,0,31,,,,None,None,,,,,,,,,,,,,31,0,31,0,611.5861833340023,,,,,,,,,,,,,,,clips/clip_wurst_10_sub_2.mp4,audios/clip_wurst_10_sub_2.mp3,audiovisual,"[0.4633578319917433, 5.272280041011982, 8.096322916011559]",None,None,,,,,,112,A,2026-04-03_20h46.53.974,exp_sofc_final,,2025.2.3,None,2026-04-03 20h46.54.874622 +0200,
,32,0,32,,,,None,None,,,,,,,,,,,,,32,0,32,0,621.1542864170042,,,,,,,,,,,,,,,clips/clip_claude_16_sub_1.mp4,audios/clip_claude_16_sub_1.mp3,audiovisual,[9.16202579101082],None,None,,,,,,112,A,2026-04-03_20h46.53.974,exp_sofc_final,,2025.2.3,None,2026-04-03 20h46.54.874622 +0200,
,33,0,33,,,,None,None,,,,,,,,,,,,,33,0,33,0,633.0974360000109,,,,,,,,,,,,,,,clips/clip_claude_21_nosub_1.mp4,audios/silence.mp3,visual,[9.774574957002187],None,None,,,,,,112,A,2026-04-03_20h46.53.974,exp_sofc_final,,2025.2.3,None,2026-04-03 20h46.54.874622 +0200,
,34,0,34,,,,None,None,,,,,,,,,,,,,34,0,34,0,646.1257162090042,,,,,,,,,,,,,,,clips/clip_holo_14_nosub_0.mp4,audios/silence.mp3,visual,[],None,None,,,,,,112,A,2026-04-03_20h46.53.974,exp_sofc_final,,2025.2.3,None,2026-04-03 20h46.54.874622 +0200,
,35,0,35,,,,None,None,,,,,,,,,,,,,35,0,35,0,656.9180363340129,,,,,,,,,,,,,,,clips/clip_holo_08_sub_2.mp4,audios/silence.mp3,visual,"[4.632217750011478, 9.476476750016445]",None,None,,,,,,112,A,2026-04-03_20h46.53.974,exp_sofc_final,,2025.2.3,None,2026-04-03 20h46.54.874622 +0200,
,36,0,36,,,,None,None,,,,,,,,,,,,,36,0,36,0,668.5176883749955,,,,,,,,,,,,,,,clips/clip_weißt_26_sub_1.mp4,audios/clip_weißt_26_sub_1.mp3,audiovisual,[7.442812415974913],None,None,,,,,,112,A,2026-04-03_20h46.53.974,exp_sofc_final,,2025.2.3,None,2026-04-03 20h46.54.874622 +0200,
,37,0,37,,,,None,None,,,,,,,,,,,,,37,0,37,0,679.4981625000073,,,,,,,,,,,,,,,clips/clip_wurst_07_nosub_0.mp4,audios/clip_wurst_07_nosub_0.mp3,audiovisual,[],None,None,,,,,,112,A,2026-04-03_20h46.53.974,exp_sofc_final,,2025.2.3,None,2026-04-03 20h46.54.874622 +0200,
,38,0,38,,,,None,None,,,,,,,,,,,,,38,0,38,0,690.2860597500112,,,,,,,,,,,,,,,clips/clip_herz_03_nosub_2.mp4,audios/silence.mp3,visual,"[5.195814790989971, 11.733700957003748]",None,None,,,,,,112,A,2026-04-03_20h46.53.974,exp_sofc_final,,2025.2.3,None,2026-04-03 20h46.54.874622 +0200,
,39,0,39,,,,4,None,6.664511415991001,None,,,,,,,,,,,39,0,39,0,703.4585700000171,,,,,,,,,,,,,,,clips/clip_dampf_01_nosub_0.mp4,audios/silence.mp3,visual,[],4,None,4,6.664511415991001,None,,,112,A,2026-04-03_20h46.53.974,exp_sofc_final,,2025.2.3,None,2026-04-03 20h46.54.874622 +0200,
,40,0,40,,,,None,None,,,,,,,,,,,,,40,0,40,0,720.3858407500084,,,,,,,,,,,,,,,clips/clip_wurst_04_sub_2.mp4,audios/silence.mp3,visual,"[4.62818058297853, 7.770971249992726]",None,None,,,,,,112,A,2026-04-03_20h46.53.974,exp_sofc_final,,2025.2.3,None,2026-04-03 20h46.54.874622 +0200,
,41,0,41,,,,None,None,,,,,,,,,,,,,41,0,41,0,732.785063917021,,,,,,,,,,,,,,,clips/clip_lied_10_nosub_1.mp4,audios/silence.mp3,visual,[4.67796483298298],None,None,,,,,,112,A,2026-04-03_20h46.53.974,exp_sofc_final,,2025.2.3,None,2026-04-03 20h46.54.874622 +0200,
,42,0,42,,,,None,None,,,,,,,,,,,,,42,0,42,0,745.0774362499942,,,,,,,,,,,,,,,clips/clip_holo_02_nosub_2.mp4,audios/silence.mp3,visual,"[4.9875656249932945, 8.278533124976093]",None,None,,,,,,112,A,2026-04-03_20h46.53.974,exp_sofc_final,,2025.2.3,None,2026-04-03 20h46.54.874622 +0200,
,43,0,43,,,,None,None,,,,,,,,,,,,,43,0,43,0,757.0371877920115,,,,,,,,,,,,,,,clips/clip_wurst_19_nosub_0.mp4,audios/silence.mp3,visual,[],None,None,,,,,,112,A,2026-04-03_20h46.53.974,exp_sofc_final,,2025.2.3,None,2026-04-03 20h46.54.874622 +0200,
,44,0,44,,,,None,None,,,,,,,,,,,,,44,0,44,0,768.8630819170212,,,,,,,,,,,,,,,clips/clip_weißt_11_sub_0.mp4,audios/clip_weißt_11_sub_0.mp3,audiovisual,[],None,None,,,,,,112,A,2026-04-03_20h46.53.974,exp_sofc_final,,2025.2.3,None,2026-04-03 20h46.54.874622 +0200,
,45,0,45,,,,None,None,,,,,,,,,,,,,45,0,45,0,779.6555879170191,,,,,,,,,,,,,,,clips/clip_lied_07_nosub_1.mp4,audios/clip_lied_07_nosub_1.mp3,audiovisual,[4.4240344160061795],None,None,,,,,,112,A,2026-04-03_20h46.53.974,exp_sofc_final,,2025.2.3,None,2026-04-03 20h46.54.874622 +0200,
,46,0,46,,,,None,None,,,,,,,,,,,,,46,0,46,0,789.4529000000039,,,,,,,,,,,,,,,clips/clip_dampf_04_sub_1.mp4,audios/clip_dampf_04_sub_1.mp3,audiovisual,[5.630071207997389],None,None,,,,,,112,A,2026-04-03_20h46.53.974,exp_sofc_final,,2025.2.3,None,2026-04-03 20h46.54.874622 +0200,
,47,0,47,,,,None,None,,,,,,,,,,,,,47,0,47,0,799.8461969170021,,,,,,,,,,,,,,,clips/clip_hund_21_nosub_1.mp4,audios/silence.mp3,visual,[6.3309145829989575],None,None,,,,,,112,A,2026-04-03_20h46.53.974,exp_sofc_final,,2025.2.3,None,2026-04-03 20h46.54.874622 +0200,
,48,0,48,,,,None,None,,,,,,,,,,,,,48,0,48,0,810.6355602499971,,,,,,,,,,,,,,,clips/clip_hund_03_sub_1.mp4,audios/clip_hund_03_sub_1.mp3,audiovisual,[6.538682248996338],None,None,,,,,,112,A,2026-04-03_20h46.53.974,exp_sofc_final,,2025.2.3,None,2026-04-03 20h46.54.874622 +0200,
,49,0,49,,,,2,None,20.2708340829995,None,,,,,,,,,,,49,0,49,0,823.2891816670017,,,,,,,,,,,,,,,clips/clip_lied_12_sub_0.mp4,audios/silence.mp3,visual,[],2,None,4,20.2708340829995,None,,,112,A,2026-04-03_20h46.53.974,exp_sofc_final,,2025.2.3,None,2026-04-03 20h46.54.874622 +0200,
,50,0,50,,,,None,None,,,,,,,,,,,,,50,0,50,0,853.4003554590163,,,,,,,,,,,,,,,clips/clip_wurst_30_sub_1.mp4,audios/clip_wurst_30_sub_1.mp3,audiovisual,[],None,None,,,,,,112,A,2026-04-03_20h46.53.974,exp_sofc_final,,2025.2.3,None,2026-04-03 20h46.54.874622 +0200,
,51,0,51,,,,3,None,4.243999624013668,None,,,,,,,,,,,51,0,51,0,864.1618109999981,,,,,,,,,,,,,,,clips/clip_hund_22_nosub_1.mp4,audios/clip_hund_22_nosub_1.mp3,audiovisual,[8.438549916027114],3,None,3,4.243999624013668,None,,,112,A,2026-04-03_20h46.53.974,exp_sofc_final,,2025.2.3,None,2026-04-03 20h46.54.874622 +0200,
,52,0,52,,,,None,None,,,,,,,,,,,,,52,0,52,0,879.237783834018,,,,,,,,,,,,,,,clips/clip_hund_24_sub_1.mp4,audios/clip_hund_24_sub_1.mp3,audiovisual,[8.066998707974562],None,None,,,,,,112,A,2026-04-03_20h46.53.974,exp_sofc_final,,2025.2.3,None,2026-04-03 20h46.54.874622 +0200,
,53,0,53,,,,1,None,5.415198832983151,None,,,,,,,,,,,53,0,53,0,892.0117597500212,,,,,,,,,,,,,,,clips/clip_wurst_26_sub_1.mp4,audios/clip_wurst_26_sub_1.mp3,audiovisual,[10.317981125001097],1,None,1,5.415198832983151,None,,,112,A,2026-04-03_20h46.53.974,exp_sofc_final,,2025.2.3,None,2026-04-03 20h46.54.874622 +0200,
,54,0,54,,,,None,None,,,,,,,,,,,,,54,0,54,0,910.2367403340177,,,,,,,,,,,,,,,clips/clip_weißt_29_sub_1.mp4,audios/silence.mp3,visual,[6.941249958006665],None,None,,,,,,112,A,2026-04-03_20h46.53.974,exp_sofc_final,,2025.2.3,None,2026-04-03 20h46.54.874622 +0200,
,55,0,55,,,,None,None,,,,,,,,,,,,,55,0,55,0,922.5751921250194,,,,,,,,,,,,,,,clips/clip_hund_23_sub_1.mp4,audios/silence.mp3,visual,[],None,None,,,,,,112,A,2026-04-03_20h46.53.974,exp_sofc_final,,2025.2.3,None,2026-04-03 20h46.54.874622 +0200,
,56,0,56,,,,1,None,15.705315290979343,None,,,,,,,,,,,56,0,56,0,934.2429973340186,,,,,,,,,,,,,,,clips/clip_lied_15_nosub_2.mp4,audios/silence.mp3,visual,"[3.782801332999952, 7.801003083004616]",1,None,1,15.705315290979343,None,,,112,A,2026-04-03_20h46.53.974,exp_sofc_final,,2025.2.3,None,2026-04-03 20h46.54.874622 +0200,
,57,0,57,,,,None,None,,,,,,,,,,,,,57,0,57,0,958.0746396670002,,,,,,,,,,,,,,,clips/clip_wurst_33_sub_0.mp4,audios/silence.mp3,visual,[],None,None,,,,,,112,A,2026-04-03_20h46.53.974,exp_sofc_final,,2025.2.3,None,2026-04-03 20h46.54.874622 +0200,
,58,0,58,,,,None,None,,,,,,,,,,,,,58,0,58,0,968.5424969590094,,,,,,,,,,,,,,,clips/clip_herz_13_sub_0.mp4,audios/silence.mp3,visual,"[6.105505707993871, 8.113633916014805]",None,None,,,,,,112,A,2026-04-03_20h46.53.974,exp_sofc_final,,2025.2.3,None,2026-04-03 20h46.54.874622 +0200,
,59,0,59,,,,None,space,,,19.268775333010126,None,,,,,,,,,59,0,59,0,980.5082720000064,,,,,,,,,,,,,,,clips/clip_wurst_21_sub_0.mp4,audios/silence.mp3,visual,[6.574394374008989],None,space,,,,19.268775333010126,None,112,A,2026-04-03_20h46.53.974,exp_sofc_final,,2025.2.3,None,2026-04-03 20h46.54.874622 +0200,
,60,0,60,,,,None,None,,,,,,,,,,,,,60,0,60,0,1011.1390808750002,,,,,,,,,,,,,,,clips/clip_holo_24_sub_2.mp4,audios/silence.mp3,visual,"[7.180994041002123, 9.898987291002413]",None,None,,,,,,112,A,2026-04-03_20h46.53.974,exp_sofc_final,,2025.2.3,None,2026-04-03 20h46.54.874622 +0200,
,61,0,61,,,,None,None,,,,,,,,,,,,,61,0,61,0,1021.7140784590156,,,,,,,,,,,,,,,clips/clip_hund_20_sub_0.mp4,audios/clip_hund_20_sub_0.mp3,audiovisual,[],None,None,,,,,,112,A,2026-04-03_20h46.53.974,exp_sofc_final,,2025.2.3,None,2026-04-03 20h46.54.874622 +0200,
,62,0,62,,,,1,None,4.819913040992105,None,,,,,,,,,,,62,0,62,0,1034.0048899590038,,,,,,,,,,,,,,,clips/clip_wurst_20_nosub_0.mp4,audios/clip_wurst_20_nosub_0.mp3,audiovisual,[],1,None,1,4.819913040992105,None,,,112,A,2026-04-03_20h46.53.974,exp_sofc_final,,2025.2.3,None,2026-04-03 20h46.54.874622 +0200,
,63,0,63,,,,None,None,,,,,,,,,,,,,63,0,63,0,1049.6338781670202,,,,,,,,,,,,,,,clips/clip_wurst_34_sub_2.mp4,audios/clip_wurst_34_sub_2.mp3,audiovisual,"[4.3811343330016825, 6.753221582999686]",None,None,,,,,,112,A,2026-04-03_20h46.53.974,exp_sofc_final,,2025.2.3,None,2026-04-03 20h46.54.874622 +0200,
,64,0,64,,,,None,None,,,,,,,,,,,,,64,0,64,0,1058.9001219590136,,,,,,,,,,,,,,,clips/clip_herz_06_sub_2.mp4,audios/clip_herz_06_sub_2.mp3,audiovisual,"[5.069835998991039, 8.651920831995085]",None,None,,,,,,112,A,2026-04-03_20h46.53.974,exp_sofc_final,,2025.2.3,None,2026-04-03 20h46.54.874622 +0200,
,65,0,65,,,,None,None,,,,,,,,,,,,,65,0,65,0,1070.2821260839992,,,,,,,,,,,,,,,clips/clip_claude_06_nosub_1.mp4,audios/clip_claude_06_nosub_1.mp3,audiovisual,[4.23434716599877],None,None,,,,,,112,A,2026-04-03_20h46.53.974,exp_sofc_final,,2025.2.3,None,2026-04-03 20h46.54.874622 +0200,
,66,0,66,,,,None,None,,,,,,,,,,,,,66,0,66,0,1083.614863291994,,,,,,,,,,,,,,,clips/clip_wurst_23_nosub_2.mp4,audios/silence.mp3,visual,"[3.6171355819969904, 7.830345832015155]",None,None,,,,,,112,A,2026-04-03_20h46.53.974,exp_sofc_final,,2025.2.3,None,2026-04-03 20h46.54.874622 +0200,
,67,0,67,,,,None,None,,,,,,,,,,,,,67,0,67,0,1094.9118523340148,,,,,,,,,,,,,,,clips/clip_wurst_24_nosub_1.mp4,audios/clip_wurst_24_nosub_1.mp3,audiovisual,[],None,None,,,,,,112,A,2026-04-03_20h46.53.974,exp_sofc_final,,2025.2.3,None,2026-04-03 20h46.54.874622 +0200,
,68,0,68,,,,None,None,,,,,,,,,,,,,68,0,68,0,1107.0002739170159,,,,,,,,,,,,,,,clips/clip_herz_09_sub_0.mp4,audios/silence.mp3,visual,[],None,None,,,,,,112,A,2026-04-03_20h46.53.974,exp_sofc_final,,2025.2.3,None,2026-04-03 20h46.54.874622 +0200,
,69,0,69,,,,None,None,,,,,,,,,,,,,69,0,69,0,1119.2901637920004,,,,,,,,,,,,,,,clips/clip_weißt_23_nosub_1.mp4,audios/clip_weißt_23_nosub_1.mp3,audiovisual,[8.759343875019113],None,None,,,,,,112,A,2026-04-03_20h46.53.974,exp_sofc_final,,2025.2.3,None,2026-04-03 20h46.54.874622 +0200,
,70,0,70,,,,2,None,4.744213874015259,None,,,,,,,,,,,70,0,70,0,1131.5155090420158,,,,,,,,,,,,,,,clips/clip_wurst_22_sub_0.mp4,audios/clip_wurst_22_sub_0.mp3,audiovisual,[],2,None,2,4.744213874015259,None,,,112,A,2026-04-03_20h46.53.974,exp_sofc_final,,2025.2.3,None,2026-04-03 20h46.54.874622 +0200,
,71,0,71,,,,None,None,,,,,,,,,,,,,71,0,71,0,1148.7342251670198,,,,,,,,,,,,,,,clips/clip_lied_11_nosub_1.mp4,audios/clip_lied_11_nosub_1.mp3,audiovisual,[8.10598445800133],None,None,,,,,,112,A,2026-04-03_20h46.53.974,exp_sofc_final,,2025.2.3,None,2026-04-03 20h46.54.874622 +0200,
,72,0,72,,,,3,None,4.280505831993651,None,,,,,,,,,,,72,0,72,0,1160.5896662920131,,,,,,,,,,,,,,,clips/clip_holo_10_nosub_1.mp4,audios/silence.mp3,visual,[6.414320873998804],3,None,3,4.280505831993651,None,,,112,A,2026-04-03_20h46.53.974,exp_sofc_final,,2025.2.3,None,2026-04-03 20h46.54.874622 +0200,
,73,0,73,,,,None,None,,,,,,,,,,,,,73,0,73,0,1175.661791999999,,,,,,,,,,,,,,,clips/clip_hund_15_sub_1.mp4,audios/silence.mp3,visual,[4.959384457004489],None,None,,,,,,112,A,2026-04-03_20h46.53.974,exp_sofc_final,,2025.2.3,None,2026-04-03 20h46.54.874622 +0200,
,74,0,74,,,,None,None,,,,,,,,,,,,,74,0,74,0,1186.8619804590126,,,,,,,,,,,,,,,clips/clip_herz_12_nosub_0.mp4,audios/clip_herz_12_nosub_0.mp3,audiovisual,[6.1522286660037935],None,None,,,,,,112,A,2026-04-03_20h46.53.974,exp_sofc_final,,2025.2.3,None,2026-04-03 20h46.54.874622 +0200,
,75,0,75,,,,None,None,,,,,,,,,,,,,75,0,75,0,1196.7113088339975,,,,,,,,,,,,,,,clips/clip_hund_34_nosub_1.mp4,audios/silence.mp3,visual,[],None,None,,,,,,112,A,2026-04-03_20h46.53.974,exp_sofc_final,,2025.2.3,None,2026-04-03 20h46.54.874622 +0200,
,76,0,76,,,,None,None,,,,,,,,,,,,,76,0,76,0,1207.9195251250057,,,,,,,,,,,,,,,clips/clip_weißt_01_nosub_1.mp4,audios/silence.mp3,visual,[5.972062916000141],None,None,,,,,,112,A,2026-04-03_20h46.53.974,exp_sofc_final,,2025.2.3,None,2026-04-03 20h46.54.874622 +0200,
,77,0,77,,,,None,None,,,,,,,,,,,,,77,0,77,0,1219.727773791994,,,,,,,,,,,,,,,clips/clip_holo_12_sub_1.mp4,audios/silence.mp3,visual,"[7.104979041003389, 9.041875916009303]",None,None,,,,,,112,A,2026-04-03_20h46.53.974,exp_sofc_final,,2025.2.3,None,2026-04-03 20h46.54.874622 +0200,
,78,0,78,,,,None,None,,,,,,,,,,,,,78,0,78,0,1230.5185256669938,,,,,,,,,,,,,,,clips/clip_wurst_35_nosub_0.mp4,audios/silence.mp3,visual,[],None,None,,,,,,112,A,2026-04-03_20h46.53.974,exp_sofc_final,,2025.2.3,None,2026-04-03 20h46.54.874622 +0200,
,79,0,79,,,,None,None,,,,,,,,,,,,,79,0,79,0,1240.6221668750222,,,,,,,,,,,,,,,clips/clip_weißt_17_nosub_0.mp4,audios/clip_weißt_17_nosub_0.mp3,audiovisual,[],None,None,,,,,,112,A,2026-04-03_20h46.53.974,exp_sofc_final,,2025.2.3,None,2026-04-03 20h46.54.874622 +0200,
,80,0,80,,,,4,None,6.363734665996162,None,,,,,,,,,,,80,0,80,0,1252.9296563340176,,,,,,,,,,,,,,,clips/clip_holo_23_nosub_1.mp4,audios/clip_holo_23_nosub_1.mp3,audiovisual,[],4,None,4,6.363734665996162,None,,,112,A,2026-04-03_20h46.53.974,exp_sofc_final,,2025.2.3,None,2026-04-03 20h46.54.874622 +0200,
,81,0,81,,,,None,None,,,,,,,,,,,,,81,0,81,0,1270.125235042011,,,,,,,,,,,,,,,clips/clip_weißt_20_sub_1.mp4,audios/clip_weißt_20_sub_1.mp3,audiovisual,[7.949168249993818],None,None,,,,,,112,A,2026-04-03_20h46.53.974,exp_sofc_final,,2025.2.3,None,2026-04-03 20h46.54.874622 +0200,
,82,0,82,,,,None,None,,,,,,,,,,,,,82,0,82,0,1280.7121878339967,,,,,,,,,,,,,,,clips/clip_holo_18_nosub_0.mp4,audios/silence.mp3,visual,"[7.201438208023319, 9.063640791020589]",None,None,,,,,,112,A,2026-04-03_20h46.53.974,exp_sofc_final,,2025.2.3,None,2026-04-03 20h46.54.874622 +0200,
,83,0,83,,,,None,None,,,,,,,,,,,,,83,0,83,0,1293.606127792009,,,,,,,,,,,,,,,clips/clip_weißt_22_nosub_0.mp4,audios/silence.mp3,visual,[],None,None,,,,,,112,A,2026-04-03_20h46.53.974,exp_sofc_final,,2025.2.3,None,2026-04-03 20h46.54.874622 +0200,
,84,0,84,,,,2,None,9.104509998986032,None,,,,,,,,,,,84,0,84,0,1305.4662918749964,,,,,,,,,,,,,,,clips/clip_herz_11_nosub_0.mp4,audios/silence.mp3,visual,[5.17574183200486],2,None,3,9.104509998986032,None,,,112,A,2026-04-03_20h46.53.974,exp_sofc_final,,2025.2.3,None,2026-04-03 20h46.54.874622 +0200,
,85,0,85,,,,None,None,,,,,,,,,,,,,85,0,85,0,1324.7041630420135,,,,,,,,,,,,,,,clips/clip_claude_11_sub_0.mp4,audios/silence.mp3,visual,[],None,None,,,,,,112,A,2026-04-03_20h46.53.974,exp_sofc_final,,2025.2.3,None,2026-04-03 20h46.54.874622 +0200,
,86,0,86,,,,None,None,,,,,,,,,,,,,86,0,86,0,1335.4675921250018,,,,,,,,,,,,,,,clips/clip_claude_23_sub_0.mp4,audios/silence.mp3,visual,[],None,None,,,,,,112,A,2026-04-03_20h46.53.974,exp_sofc_final,,2025.2.3,None,2026-04-03 20h46.54.874622 +0200,
,87,0,87,,,,None,None,,,,,,,,,,,,,87,0,87,0,1348.3809646670124,,,,,,,,,,,,,,,clips/clip_wurst_11_nosub_0.mp4,audios/silence.mp3,visual,[],None,None,,,,,,112,A,2026-04-03_20h46.53.974,exp_sofc_final,,2025.2.3,None,2026-04-03 20h46.54.874622 +0200,
,88,0,88,,,,None,None,,,,,,,,,,,,,88,0,88,0,1361.1746360420075,,,,,,,,,,,,,,,clips/clip_holo_06_nosub_2.mp4,audios/silence.mp3,visual,"[5.11681412399048, 9.139835540991044]",None,None,,,,,,112,A,2026-04-03_20h46.53.974,exp_sofc_final,,2025.2.3,None,2026-04-03 20h46.54.874622 +0200,
,89,0,89,,,,None,None,,,,,,,,,,,,,89,0,89,0,1371.7379409169953,,,,,,,,,,,,,,,clips/clip_claude_19_sub_0.mp4,audios/silence.mp3,visual,[],None,None,,,,,,112,A,2026-04-03_20h46.53.974,exp_sofc_final,,2025.2.3,None,2026-04-03 20h46.54.874622 +0200,
,90,0,90,,,,None,None,,,,,,,,,,,,,90,0,90,0,1382.946016834001,,,,,,,,,,,,,,,clips/clip_herz_08_nosub_0.mp4,audios/clip_herz_08_nosub_0.mp3,audiovisual,"[5.3923302910116035, 9.699293415993452]",None,None,,,,,,112,A,2026-04-03_20h46.53.974,exp_sofc_final,,2025.2.3,None,2026-04-03 20h46.54.874622 +0200,
,91,0,91,,,,None,None,,,,,,,,,,,,,91,0,91,0,1395.7103767500084,,,,,,,,,,,,,,,clips/clip_holo_05_sub_2.mp4,audios/clip_holo_05_sub_2.mp3,audiovisual,[8.00346087399521],None,None,,,,,,112,A,2026-04-03_20h46.53.974,exp_sofc_final,,2025.2.3,None,2026-04-03 20h46.54.874622 +0200,
,92,0,92,,,,None,None,,,,,,,,,,,,,92,0,92,0,1405.5884409169958,,,,,,,,,,,,,,,clips/clip_weißt_12_nosub_1.mp4,audios/silence.mp3,visual,[9.602935750008328],None,None,,,,,,112,A,2026-04-03_20h46.53.974,exp_sofc_final,,2025.2.3,None,2026-04-03 20h46.54.874622 +0200,
,93,0,93,,,,None,None,,,,,,,,,,,,,93,0,93,0,1418.3158597500005,,,,,,,,,,,,,,,clips/clip_lied_14_sub_0.mp4,audios/clip_lied_14_sub_0.mp3,audiovisual,[],None,None,,,,,,112,A,2026-04-03_20h46.53.974,exp_sofc_final,,2025.2.3,None,2026-04-03 20h46.54.874622 +0200,
,94,0,94,,,,1,None,3.338384999020491,None,,,,,,,,,,,94,0,94,0,1428.7871875420096,,,,,,,,,,,,,,,clips/clip_weißt_04_sub_0.mp4,audios/clip_weißt_04_sub_0.mp3,audiovisual,[],1,None,1,3.338384999020491,None,,,112,A,2026-04-03_20h46.53.974,exp_sofc_final,,2025.2.3,None,2026-04-03 20h46.54.874622 +0200,
,95,0,95,,,,None,None,,,,,,,,,,,,,95,0,95,0,1442.988145292009,,,,,,,,,,,,,,,clips/clip_holo_22_nosub_1.mp4,audios/silence.mp3,visual,[9.481249166012276],None,None,,,,,,112,A,2026-04-03_20h46.53.974,exp_sofc_final,,2025.2.3,None,2026-04-03 20h46.54.874622 +0200,
,96,0,96,,,,3,None,7.778786998998839,None,,,,,,,,,,,96,0,96,0,1452.958986084006,,,,,,,,,,,,,,,clips/clip_wurst_15_nosub_2.mp4,audios/silence.mp3,visual,[5.636089206993347],3,None,3,7.778786998998839,None,,,112,A,2026-04-03_20h46.53.974,exp_sofc_final,,2025.2.3,None,2026-04-03 20h46.54.874622 +0200,
,97,0,97,,,,None,None,,,,,,,,,,,,,97,0,97,0,1470.9913194170222,,,,,,,,,,,,,,,clips/clip_hund_29_nosub_0.mp4,audios/clip_hund_29_nosub_0.mp3,audiovisual,[10.728467874985654],None,None,,,,,,112,A,2026-04-03_20h46.53.974,exp_sofc_final,,2025.2.3,None,2026-04-03 20h46.54.874622 +0200,
,98,0,98,,,,None,None,,,,,,,,,,,,,98,0,98,0,1483.1631526669953,,,,,,,,,,,,,,,clips/clip_hund_07_sub_1.mp4,audios/silence.mp3,visual,[6.704822082014289],None,None,,,,,,112,A,2026-04-03_20h46.53.974,exp_sofc_final,,2025.2.3,None,2026-04-03 20h46.54.874622 +0200,
,99,0,99,,,,1,None,7.688740540994331,None,,,,,,,,,,,99,0,99,0,1495.5628000000142,,,,,,,,,,,,,,,clips/clip_holo_04_sub_2.mp4,audios/silence.mp3,visual,[7.707938791019842],1,None,1,7.688740540994331,None,,,112,A,2026-04-03_20h46.53.974,exp_sofc_final,,2025.2.3,None,2026-04-03 20h46.54.874622 +0200,
,100,0,100,,,,None,None,,,,,,,,,,,,,100,0,100,0,1516.1248677500116,,,,,,,,,,,,,,,clips/clip_claude_20_sub_1.mp4,audios/clip_claude_20_sub_1.mp3,audiovisual,[6.6463523319980595],None,None,,,,,,112,A,2026-04-03_20h46.53.974,exp_sofc_final,,2025.2.3,None,2026-04-03 20h46.54.874622 +0200,
,101,0,101,,,,None,None,,,,,,,,,,,,,101,0,101,0,1528.8804673750128,,,,,,,,,,,,,,,clips/clip_weißt_28_nosub_1.mp4,audios/clip_weißt_28_nosub_1.mp3,audiovisual,"[2.18405187499593, 6.762510250002379]",None,None,,,,,,112,A,2026-04-03_20h46.53.974,exp_sofc_final,,2025.2.3,None,2026-04-03 20h46.54.874622 +0200,
,102,0,102,,,,3,None,4.692516083014198,None,,,,,,,,,,,102,0,102,0,1539.7311870840203,,,,,,,,,,,,,,,clips/clip_dampf_06_nosub_2.mp4,audios/clip_dampf_06_nosub_2.mp3,audiovisual,[],3,None,3,4.692516083014198,None,,,112,A,2026-04-03_20h46.53.974,exp_sofc_final,,2025.2.3,None,2026-04-03 20h46.54.874622 +0200,
,103,0,103,,,,None,None,,,,,,,,,,,,,103,0,103,0,1554.2578619169944,,,,,,,,,,,,,,,clips/clip_lied_03_nosub_1.mp4,audios/clip_lied_03_nosub_1.mp3,audiovisual,[4.484249000001],None,None,,,,,,112,A,2026-04-03_20h46.53.974,exp_sofc_final,,2025.2.3,None,2026-04-03 20h46.54.874622 +0200,
,104,0,104,,,,None,None,,,,,,,,,,,,,104,0,104,0,1565.5588818340038,,,,,,,,,,,,,,,clips/clip_wurst_05_sub_0.mp4,audios/clip_wurst_05_sub_0.mp3,audiovisual,[],None,None,,,,,,112,A,2026-04-03_20h46.53.974,exp_sofc_final,,2025.2.3,None,2026-04-03 20h46.54.874622 +0200,
,105,0,105,,,,None,None,,,,,,,,,,,,,105,0,105,0,1575.0018431250064,,,,,,,,,,,,,,,clips/clip_herz_01_sub_1.mp4,audios/silence.mp3,visual,[6.77496362500824],None,None,,,,,,112,A,2026-04-03_20h46.53.974,exp_sofc_final,,2025.2.3,None,2026-04-03 20h46.54.874622 +0200,
,106,0,106,,,,None,None,,,,,,,,,,,,,106,0,106,0,1586.3615398750117,,,,,,,,,,,,,,,clips/clip_wurst_08_sub_1.mp4,audios/silence.mp3,visual,[5.634032875008415],None,None,,,,,,112,A,2026-04-03_20h46.53.974,exp_sofc_final,,2025.2.3,None,2026-04-03 20h46.54.874622 +0200,
,107,0,107,,,,None,None,,,,,,,,,,,,,107,0,107,0,1595.6681364170217,,,,,,,,,,,,,,,clips/clip_holo_07_nosub_0.mp4,audios/clip_holo_07_nosub_0.mp3,audiovisual,[],None,None,,,,,,112,A,2026-04-03_20h46.53.974,exp_sofc_final,,2025.2.3,None,2026-04-03 20h46.54.874622 +0200,
,108,0,108,,,,None,None,,,,,,,,,,,,,108,0,108,0,1605.8450290000183,,,,,,,,,,,,,,,clips/clip_hund_01_sub_0.mp4,audios/silence.mp3,visual,[],None,None,,,,,,112,A,2026-04-03_20h46.53.974,exp_sofc_final,,2025.2.3,None,2026-04-03 20h46.54.874622 +0200,
,109,0,109,,,,None,None,,,,,,,,,,,,,109,0,109,0,1617.383880709007,,,,,,,,,,,,,,,clips/clip_lied_02_nosub_2.mp4,audios/silence.mp3,visual,"[4.3377117500058375, 11.197813416016288]",None,None,,,,,,112,A,2026-04-03_20h46.53.974,exp_sofc_final,,2025.2.3,None,2026-04-03 20h46.54.874622 +0200,
,110,0,110,,,,None,None,,,,,,,,,,,,,110,0,110,0,1629.180341875006,,,,,,,,,,,,,,,clips/clip_wurst_27_nosub_1.mp4,audios/silence.mp3,visual,[6.050616583001101],None,None,,,,,,112,A,2026-04-03_20h46.53.974,exp_sofc_final,,2025.2.3,None,2026-04-03 20h46.54.874622 +0200,
,111,0,111,,,,None,None,,,,,,,,,,,,,111,0,111,0,1640.1380020840152,,,,,,,,,,,,,,,clips/clip_lied_19_nosub_1.mp4,audios/silence.mp3,visual,[],None,None,,,,,,112,A,2026-04-03_20h46.53.974,exp_sofc_final,,2025.2.3,None,2026-04-03 20h46.54.874622 +0200,
,112,0,112,,,,None,None,,,,,,,,,,,,,112,0,112,0,1651.6167404589942,,,,,,,,,,,,,,,clips/clip_holo_26_sub_2.mp4,audios/clip_holo_26_sub_2.mp3,audiovisual,"[6.691065457998775, 8.412857875024201]",None,None,,,,,,112,A,2026-04-03_20h46.53.974,exp_sofc_final,,2025.2.3,None,2026-04-03 20h46.54.874622 +0200,
,113,0,113,,,,None,None,,,,,,,,,,,,,113,0,113,0,1661.5989490420034,,,,,,,,,,,,,,,clips/clip_lied_06_nosub_1.mp4,audios/silence.mp3,visual,[],None,None,,,,,,112,A,2026-04-03_20h46.53.974,exp_sofc_final,,2025.2.3,None,2026-04-03 20h46.54.874622 +0200,
,114,0,114,,,,2,None,14.092618332011625,None,,,,,,,,,,,114,0,114,0,1674.9880910420034,,,,,,,,,,,,,,,clips/clip_lied_09_sub_1.mp4,audios/clip_lied_09_sub_1.mp3,audiovisual,[],2,None,2,14.092618332011625,None,,,112,A,2026-04-03_20h46.53.974,exp_sofc_final,,2025.2.3,None,2026-04-03 20h46.54.874622 +0200,
,115,0,115,,,,None,None,,,,,,,,,,,,,115,0,115,0,1700.3016390840057,,,,,,,,,,,,,,,clips/clip_wurst_01_nosub_0.mp4,audios/silence.mp3,visual,[],None,None,,,,,,112,A,2026-04-03_20h46.53.974,exp_sofc_final,,2025.2.3,None,2026-04-03 20h46.54.874622 +0200,
,116,0,116,,,,None,None,,,,,,,,,,,,,116,0,116,0,1710.9875019169995,,,,,,,,,,,,,,,clips/clip_wurst_25_sub_1.mp4,audios/silence.mp3,visual,[],None,None,,,,,,112,A,2026-04-03_20h46.53.974,exp_sofc_final,,2025.2.3,None,2026-04-03 20h46.54.874622 +0200,
,117,0,117,,,,None,None,,,,,,,,,,,,,117,0,117,0,1723.0400698750163,,,,,,,,,,,,,,,clips/clip_lied_20_nosub_2.mp4,audios/clip_lied_20_nosub_2.mp3,audiovisual,"[5.148943915992277, 8.332966623973334]",None,None,,,,,,112,A,2026-04-03_20h46.53.974,exp_sofc_final,,2025.2.3,None,2026-04-03 20h46.54.874622 +0200,
,118,0,118,,,,None,None,,,,,,,,,,,,,118,0,118,0,1734.5143170420197,,,,,,,,,,,,,,,clips/clip_weißt_03_sub_0.mp4,audios/silence.mp3,visual,"[7.328252916020574, 10.712317208002787]",None,None,,,,,,112,A,2026-04-03_20h46.53.974,exp_sofc_final,,2025.2.3,None,2026-04-03 20h46.54.874622 +0200,
,119,0,119,,,,None,space,,,34.12019774899818,None,,,,,,,,,119,0,119,0,1747.2996213750157,,,,,,,,,,,,,,,clips/clip_holo_16_sub_1.mp4,audios/silence.mp3,visual,[10.582438665995141],None,space,,,,34.12019774899818,None,112,A,2026-04-03_20h46.53.974,exp_sofc_final,,2025.2.3,None,2026-04-03 20h46.54.874622 +0200,
,120,0,120,,,,None,None,,,,,,,,,,,,,120,0,120,0,1794.2660321670119,,,,,,,,,,,,,,,clips/clip_hund_13_nosub_1.mp4,audios/silence.mp3,visual,[5.879060624021804],None,None,,,,,,112,A,2026-04-03_20h46.53.974,exp_sofc_final,,2025.2.3,None,2026-04-03 20h46.54.874622 +0200,
,121,0,121,,,,None,None,,,,,,,,,,,,,121,0,121,0,1806.7620870840037,,,,,,,,,,,,,,,clips/clip_hund_08_sub_1.mp4,audios/clip_hund_08_sub_1.mp3,audiovisual,[],None,None,,,,,,112,A,2026-04-03_20h46.53.974,exp_sofc_final,,2025.2.3,None,2026-04-03 20h46.54.874622 +0200,
,122,0,122,,,,None,None,,,,,,,,,,,,,122,0,122,0,1817.5498722500051,,,,,,,,,,,,,,,clips/clip_claude_26_nosub_0.mp4,audios/clip_claude_26_nosub_0.mp3,audiovisual,[4.417589707998559],None,None,,,,,,112,A,2026-04-03_20h46.53.974,exp_sofc_final,,2025.2.3,None,2026-04-03 20h46.54.874622 +0200,
,123,0,123,,,,None,None,,,,,,,,,,,,,123,0,123,0,1829.2497385840106,,,,,,,,,,,,,,,clips/clip_holo_17_sub_0.mp4,audios/clip_holo_17_sub_0.mp3,audiovisual,[],None,None,,,,,,112,A,2026-04-03_20h46.53.974,exp_sofc_final,,2025.2.3,None,2026-04-03 20h46.54.874622 +0200,
,124,0,124,,,,None,None,,,,,,,,,,,,,124,0,124,0,1839.8208774590166,,,,,,,,,,,,,,,clips/clip_claude_27_sub_0.mp4,audios/silence.mp3,visual,[],None,None,,,,,,112,A,2026-04-03_20h46.53.974,exp_sofc_final,,2025.2.3,None,2026-04-03 20h46.54.874622 +0200,
,125,0,125,,,,None,None,,,,,,,,,,,,,125,0,125,0,1852.6235234170163,,,,,,,,,,,,,,,clips/clip_lied_17_sub_2.mp4,audios/silence.mp3,visual,[7.868929541000398],None,None,,,,,,112,A,2026-04-03_20h46.53.974,exp_sofc_final,,2025.2.3,None,2026-04-03 20h46.54.874622 +0200,
,126,0,126,,,,None,None,,,,,,,,,,,,,126,0,126,0,1863.433125459007,,,,,,,,,,,,,,,clips/clip_wurst_28_nosub_1.mp4,audios/clip_wurst_28_nosub_1.mp3,audiovisual,[],None,None,,,,,,112,A,2026-04-03_20h46.53.974,exp_sofc_final,,2025.2.3,None,2026-04-03 20h46.54.874622 +0200,
,127,0,127,,,,None,None,,,,,,,,,,,,,127,0,127,0,1874.5220919169951,,,,,,,,,,,,,,,clips/clip_dampf_03_sub_1.mp4,audios/silence.mp3,visual,"[4.660437915998045, 7.7735749160056]",None,None,,,,,,112,A,2026-04-03_20h46.53.974,exp_sofc_final,,2025.2.3,None,2026-04-03 20h46.54.874622 +0200,
,128,0,128,,,,None,None,,,,,,,,,,,,,128,0,128,0,1882.92432762502,,,,,,,,,,,,,,,clips/clip_claude_13_nosub_0.mp4,audios/silence.mp3,visual,[],None,None,,,,,,112,A,2026-04-03_20h46.53.974,exp_sofc_final,,2025.2.3,None,2026-04-03 20h46.54.874622 +0200,
,129,0,129,,,,None,None,,,,,,,,,,,,,129,0,129,0,1892.9176738340175,,,,,,,,,,,,,,,clips/clip_herz_04_nosub_0.mp4,audios/clip_herz_04_nosub_0.mp3,audiovisual,[8.013929416018073],None,None,,,,,,112,A,2026-04-03_20h46.53.974,exp_sofc_final,,2025.2.3,None,2026-04-03 20h46.54.874622 +0200,
,130,0,130,,,,None,None,,,,,,,,,,,,,130,0,130,0,1904.7236403340066,,,,,,,,,,,,,,,clips/clip_holo_01_sub_1.mp4,audios/clip_holo_01_sub_1.mp3,audiovisual,[5.0008331240096595],None,None,,,,,,112,A,2026-04-03_20h46.53.974,exp_sofc_final,,2025.2.3,None,2026-04-03 20h46.54.874622 +0200,
,131,0,131,,,,2,None,3.9874927069758996,None,,,,,,,,,,,131,0,131,0,1914.6671292090032,,,,,,,,,,,,,,,clips/clip_hund_27_nosub_1.mp4,audios/silence.mp3,visual,[],2,None,2,3.9874927069758996,None,,,112,A,2026-04-03_20h46.53.974,exp_sofc_final,,2025.2.3,None,2026-04-03 20h46.54.874622 +0200,
,132,0,132,,,,None,None,,,,,,,,,,,,,132,0,132,0,1929.6868054170045,,,,,,,,,,,,,,,clips/clip_hund_17_nosub_1.mp4,audios/silence.mp3,visual,"[8.96547479100991, 10.309588541014818]",None,None,,,,,,112,A,2026-04-03_20h46.53.974,exp_sofc_final,,2025.2.3,None,2026-04-03 20h46.54.874622 +0200,
,133,0,133,,,,None,None,,,,,,,,,,,,,133,0,133,0,1942.752588000003,,,,,,,,,,,,,,,clips/clip_hund_18_nosub_1.mp4,audios/clip_hund_18_nosub_1.mp3,audiovisual,[7.038200456998311],None,None,,,,,,112,A,2026-04-03_20h46.53.974,exp_sofc_final,,2025.2.3,None,2026-04-03 20h46.54.874622 +0200,
,134,0,134,,,,None,None,,,,,,,,,,,,,134,0,134,0,1953.5663325000205,,,,,,,,,,,,,,,clips/clip_hund_14_nosub_2.mp4,audios/clip_hund_14_nosub_2.mp3,audiovisual,[6.059114790987223],None,None,,,,,,112,A,2026-04-03_20h46.53.974,exp_sofc_final,,2025.2.3,None,2026-04-03 20h46.54.874622 +0200,
,135,0,135,,,,None,None,,,,,,,,,,,,,135,0,135,0,1964.2570800420071,,,,,,,,,,,,,,,clips/clip_claude_01_nosub_2.mp4,audios/silence.mp3,visual,"[0.31562354101333767, 6.830094041011762, 9.780178666027496]",None,None,,,,,,112,A,2026-04-03_20h46.53.974,exp_sofc_final,,2025.2.3,None,2026-04-03 20h46.54.874622 +0200,
,136,0,136,,,,None,None,,,,,,,,,,,,,136,0,136,0,1976.032825000002,,,,,,,,,,,,,,,clips/clip_weißt_15_sub_1.mp4,audios/clip_weißt_15_sub_1.mp3,audiovisual,"[1.3307483330136165, 3.626679373992374, 5.79362249901169]",None,None,,,,,,112,A,2026-04-03_20h46.53.974,exp_sofc_final,,2025.2.3,None,2026-04-03 20h46.54.874622 +0200,
,137,0,137,,,,None,None,,,,,,,,,,,,,137,0,137,0,1987.7545893750212,,,,,,,,,,,,,,,clips/clip_holo_13_sub_1.mp4,audios/clip_holo_13_sub_1.mp3,audiovisual,[4.584416206984315],None,None,,,,,,112,A,2026-04-03_20h46.53.974,exp_sofc_final,,2025.2.3,None,2026-04-03 20h46.54.874622 +0200,
,138,0,138,,,,None,None,,,,,,,,,,,,,138,0,138,0,2000.3727852920128,,,,,,,,,,,,,,,clips/clip_wurst_36_nosub_0.mp4,audios/clip_wurst_36_nosub_0.mp3,audiovisual,[],None,None,,,,,,112,A,2026-04-03_20h46.53.974,exp_sofc_final,,2025.2.3,None,2026-04-03 20h46.54.874622 +0200,
,139,0,139,,,,None,None,,,,,,,,,,,,,139,0,139,0,2011.0053217090026,,,,,,,,,,,,,,,clips/clip_lied_22_sub_1.mp4,audios/clip_lied_22_sub_1.mp3,audiovisual,[6.262750457972288],None,None,,,,,,112,A,2026-04-03_20h46.53.974,exp_sofc_final,,2025.2.3,None,2026-04-03 20h46.54.874622 +0200,
,140,0,140,,,,None,None,,,,,,,,,,,,,140,0,140,0,2022.2894253749982,,,,,,,,,,,,,,,clips/clip_weißt_19_sub_1.mp4,audios/silence.mp3,visual,[],None,None,,,,,,112,A,2026-04-03_20h46.53.974,exp_sofc_final,,2025.2.3,None,2026-04-03 20h46.54.874622 +0200,
,141,0,141,,,,None,None,,,,,,,,,,,,,141,0,141,0,2033.119680917007,,,,,,,,,,,,,,,clips/clip_holo_09_sub_2.mp4,audios/clip_holo_09_sub_2.mp3,audiovisual,[],None,None,,,,,,112,A,2026-04-03_20h46.53.974,exp_sofc_final,,2025.2.3,None,2026-04-03 20h46.54.874622 +0200,
,142,0,142,,,,None,None,,,,,,,,,,,,,142,0,142,0,2045.314048291999,,,,,,,,,,,,,,,clips/clip_weißt_30_sub_2.mp4,audios/clip_weißt_30_sub_2.mp3,audiovisual,"[3.3818587079877034, 12.34941208298551]",None,None,,,,,,112,A,2026-04-03_20h46.53.974,exp_sofc_final,,2025.2.3,None,2026-04-03 20h46.54.874622 +0200,
,143,0,143,,,,4,None,25.826292000012472,None,,,,,,,,,,,143,0,143,0,2058.0995915420062,,,,,,,,,,,,,,,clips/clip_claude_10_nosub_0.mp4,audios/clip_claude_10_nosub_0.mp3,audiovisual,[],4,None,4,25.826292000012472,None,,,112,A,2026-04-03_20h46.53.974,exp_sofc_final,,2025.2.3,None,2026-04-03 20h46.54.874622 +0200,
,144,0,144,,,,None,None,,,,,,,,,,,,,144,0,144,0,2095.969027709012,,,,,,,,,,,,,,,clips/clip_wurst_29_sub_1.mp4,audios/silence.mp3,visual,[6.559412248985609],None,None,,,,,,112,A,2026-04-03_20h46.53.974,exp_sofc_final,,2025.2.3,None,2026-04-03 20h46.54.874622 +0200,
,145,0,145,,,,None,None,,,,,,,,,,,,,145,0,145,0,2108.742165917007,,,,,,,,,,,,,,,clips/clip_wurst_06_nosub_2.mp4,audios/silence.mp3,visual,"[2.5042042910063174, 8.244353332003811]",None,None,,,,,,112,A,2026-04-03_20h46.53.974,exp_sofc_final,,2025.2.3,None,2026-04-03 20h46.54.874622 +0200,
,146,0,146,,,,None,None,,,,,,,,,,,,,146,0,146,0,2120.632046667015,,,,,,,,,,,,,,,clips/clip_claude_22_nosub_2.mp4,audios/clip_claude_22_nosub_2.mp3,audiovisual,[8.27653724999982],None,None,,,,,,112,A,2026-04-03_20h46.53.974,exp_sofc_final,,2025.2.3,None,2026-04-03 20h46.54.874622 +0200,
,147,0,147,,,,None,None,,,,,,,,,,,,,147,0,147,0,2132.131910583994,,,,,,,,,,,,,,,clips/clip_hund_04_nosub_0.mp4,audios/silence.mp3,visual,[],None,None,,,,,,112,A,2026-04-03_20h46.53.974,exp_sofc_final,,2025.2.3,None,2026-04-03 20h46.54.874622 +0200,
,148,0,148,,,,None,None,,,,,,,,,,,,,148,0,148,0,2142.44110562501,,,,,,,,,,,,,,,clips/clip_holo_28_nosub_0.mp4,audios/clip_holo_28_nosub_0.mp3,audiovisual,[],None,None,,,,,,112,A,2026-04-03_20h46.53.974,exp_sofc_final,,2025.2.3,None,2026-04-03 20h46.54.874622 +0200,
,149,0,149,,,,4,None,11.705860749003477,None,,,,,,,,,,,149,0,149,0,2151.725852625008,,,,,,,,,,,,,,,clips/clip_weißt_07_nosub_1.mp4,audios/clip_weißt_07_nosub_1.mp3,audiovisual,[],4,None,4,11.705860749003477,None,,,112,A,2026-04-03_20h46.53.974,exp_sofc_final,,2025.2.3,None,2026-04-03 20h46.54.874622 +0200,
,150,0,150,,,,3,None,8.10926549899159,None,,,,,,,,,,,150,0,150,0,2173.9877371250186,,,,,,,,,,,,,,,clips/clip_holo_03_nosub_1.mp4,audios/clip_holo_03_nosub_1.mp3,audiovisual,[],3,None,3,8.10926549899159,None,,,112,A,2026-04-03_20h46.53.974,exp_sofc_final,,2025.2.3,None,2026-04-03 20h46.54.874622 +0200,
,151,0,151,,,,None,None,,,,,,,,,,,,,151,0,151,0,2192.3914375840104,,,,,,,,,,,,,,,clips/clip_claude_18_nosub_0.mp4,audios/clip_claude_18_nosub_0.mp3,audiovisual,[],None,None,,,,,,112,A,2026-04-03_20h46.53.974,exp_sofc_final,,2025.2.3,None,2026-04-03 20h46.54.874622 +0200,
,152,0,152,,,,3,None,11.761827457987238,None,,,,,,,,,,,152,0,152,0,2202.1565655420127,,,,,,,,,,,,,,,clips/clip_wurst_12_nosub_0.mp4,audios/clip_wurst_12_nosub_0.mp3,audiovisual,[],3,None,3,11.761827457987238,None,,,112,A,2026-04-03_20h46.53.974,exp_sofc_final,,2025.2.3,None,2026-04-03 20h46.54.874622 +0200,
,153,0,153,,,,None,None,,,,,,,,,,,,,153,0,153,0,2223.344966500008,,,,,,,,,,,,,,,clips/clip_wurst_16_nosub_0.mp4,audios/clip_wurst_16_nosub_0.mp3,audiovisual,[5.66168699998525],None,None,,,,,,112,A,2026-04-03_20h46.53.974,exp_sofc_final,,2025.2.3,None,2026-04-03 20h46.54.874622 +0200,
,154,0,154,,,,3,None,5.117042541009141,None,,,,,,,,,,,154,0,154,0,2234.142384167004,,,,,,,,,,,,,,,clips/clip_herz_02_sub_0.mp4,audios/clip_herz_02_sub_0.mp3,audiovisual,[],3,None,3,5.117042541009141,None,,,112,A,2026-04-03_20h46.53.974,exp_sofc_final,,2025.2.3,None,2026-04-03 20h46.54.874622 +0200,
,155,0,155,,,,4,None,4.214819332992192,None,,,,,,,,,,,155,0,155,0,2252.4703747919993,,,,,,,,,,,,,,,clips/clip_lied_18_sub_2.mp4,audios/clip_lied_18_sub_2.mp3,audiovisual,"[5.570970541011775, 7.758064457011642]",4,None,4,4.214819332992192,None,,,112,A,2026-04-03_20h46.53.974,exp_sofc_final,,2025.2.3,None,2026-04-03 20h46.54.874622 +0200,
,156,0,156,,,,None,None,,,,,,,,,,,,,156,0,156,0,2268.146452500019,,,,,,,,,,,,,,,clips/clip_claude_09_nosub_2.mp4,audios/silence.mp3,visual,[4.140549748990452],None,None,,,,,,112,A,2026-04-03_20h46.53.974,exp_sofc_final,,2025.2.3,None,2026-04-03 20h46.54.874622 +0200,
,157,0,157,,,,None,None,,,,,,,,,,,,,157,0,157,0,2279.125697875017,,,,,,,,,,,,,,,clips/clip_herz_05_sub_0.mp4,audios/silence.mp3,visual,"[6.234104291012045, 7.755166165996343]",None,None,,,,,,112,A,2026-04-03_20h46.53.974,exp_sofc_final,,2025.2.3,None,2026-04-03 20h46.54.874622 +0200,
,158,0,158,,,,None,None,,,,,,,,,,,,,158,0,158,0,2290.211203209008,,,,,,,,,,,,,,,clips/clip_claude_29_sub_0.mp4,audios/clip_claude_29_sub_0.mp3,audiovisual,[7.724163374019554],None,None,,,,,,112,A,2026-04-03_20h46.53.974,exp_sofc_final,,2025.2.3,None,2026-04-03 20h46.54.874622 +0200,
,159,0,159,,,,None,None,,,,,,,,,,,,,159,0,159,0,2301.0139226670144,,,,,,,,,,,,,,,clips/clip_wurst_14_sub_1.mp4,audios/clip_wurst_14_sub_1.mp3,audiovisual,[8.072497665998526],None,None,,,,,,112,A,2026-04-03_20h46.53.974,exp_sofc_final,,2025.2.3,None,2026-04-03 20h46.54.874622 +0200,
,160,0,160,,,,None,None,,,,,,,,,,,,,160,0,160,0,2311.774916124996,,,,,,,,,,,,,,,clips/clip_herz_17_sub_0.mp4,audios/silence.mp3,visual,[5.9231454570253845],None,None,,,,,,112,A,2026-04-03_20h46.53.974,exp_sofc_final,,2025.2.3,None,2026-04-03 20h46.54.874622 +0200,
,161,0,161,,,,2,None,8.962560999003472,None,,,,,,,,,,,161,0,161,0,2320.7432064170134,,,,,,,,,,,,,,,clips/clip_lied_01_sub_1.mp4,audios/clip_lied_01_sub_1.mp3,audiovisual,[4.962147665995872],2,None,2,8.962560999003472,None,,,112,A,2026-04-03_20h46.53.974,exp_sofc_final,,2025.2.3,None,2026-04-03 20h46.54.874622 +0200,
,162,0,162,,,,3,None,4.8381753739959095,None,,,,,,,,,,,162,0,162,0,2340.5932567090204,,,,,,,,,,,,,,,clips/clip_claude_24_sub_1.mp4,audios/clip_claude_24_sub_1.mp3,audiovisual,[6.165948208014015],3,None,2,4.8381753739959095,None,,,112,A,2026-04-03_20h46.53.974,exp_sofc_final,,2025.2.3,None,2026-04-03 20h46.54.874622 +0200,
,163,0,163,,,,None,None,,,,,,,,,,,,,163,0,163,0,2352.410784000007,,,,,,,,,,,,,,,clips/clip_holo_27_nosub_1.mp4,audios/silence.mp3,visual,[10.185554041003343],None,None,,,,,,112,A,2026-04-03_20h46.53.974,exp_sofc_final,,2025.2.3,None,2026-04-03 20h46.54.874622 +0200,
,164,0,164,,,,None,None,,,,,,,,,,,,,164,0,164,0,2363.1732185840083,,,,,,,,,,,,,,,clips/clip_wurst_32_nosub_1.mp4,audios/clip_wurst_32_nosub_1.mp3,audiovisual,[],None,None,,,,,,112,A,2026-04-03_20h46.53.974,exp_sofc_final,,2025.2.3,None,2026-04-03 20h46.54.874622 +0200,
,165,0,165,,,,None,None,,,,,,,,,,,,,165,0,165,0,2374.5974537500006,,,,,,,,,,,,,,,clips/clip_wurst_03_nosub_1.mp4,audios/clip_wurst_03_nosub_1.mp3,audiovisual,[4.426089790998958],None,None,,,,,,112,A,2026-04-03_20h46.53.974,exp_sofc_final,,2025.2.3,None,2026-04-03 20h46.54.874622 +0200,
,166,0,166,,,,None,None,,,,,,,,,,,,,166,0,166,0,2387.269172333996,,,,,,,,,,,,,,,clips/clip_weißt_14_sub_2.mp4,audios/silence.mp3,visual,"[2.9182563329814, 8.29591099897516]",None,None,,,,,,112,A,2026-04-03_20h46.53.974,exp_sofc_final,,2025.2.3,None,2026-04-03 20h46.54.874622 +0200,
,167,0,167,,,,None,None,,,,,,,,,,,,,167,0,167,0,2396.984289834014,,,,,,,,,,,,,,,clips/clip_herz_14_sub_0.mp4,audios/clip_herz_14_sub_0.mp3,audiovisual,[],None,None,,,,,,112,A,2026-04-03_20h46.53.974,exp_sofc_final,,2025.2.3,None,2026-04-03 20h46.54.874622 +0200,
,168,0,168,,,,3,None,4.250360041012755,None,,,,,,,,,,,168,0,168,0,2408.2719894170004,,,,,,,,,,,,,,,clips/clip_weißt_08_sub_0.mp4,audios/silence.mp3,visual,[8.328428416018141],3,None,3,4.250360041012755,None,,,112,A,2026-04-03_20h46.53.974,exp_sofc_final,,2025.2.3,None,2026-04-03 20h46.54.874622 +0200,
,169,0,169,,,,None,None,,,,,,,,,,,,,169,0,169,0,2423.545771584002,,,,,,,,,,,,,,,clips/clip_holo_11_nosub_2.mp4,audios/clip_holo_11_nosub_2.mp3,audiovisual,"[5.553619915997842, 9.183718457992654]",None,None,,,,,,112,A,2026-04-03_20h46.53.974,exp_sofc_final,,2025.2.3,None,2026-04-03 20h46.54.874622 +0200,
,170,0,170,,,,None,None,,,,,,,,,,,,,170,0,170,0,2433.9156991670025,,,,,,,,,,,,,,,clips/clip_hund_30_sub_0.mp4,audios/silence.mp3,visual,[],None,None,,,,,,112,A,2026-04-03_20h46.53.974,exp_sofc_final,,2025.2.3,None,2026-04-03 20h46.54.874622 +0200,
,171,0,171,,,,None,None,,,,,,,,,,,,,171,0,171,0,2446.7441870420007,,,,,,,,,,,,,,,clips/clip_claude_08_sub_0.mp4,audios/clip_claude_08_sub_0.mp3,audiovisual,[],None,None,,,,,,112,A,2026-04-03_20h46.53.974,exp_sofc_final,,2025.2.3,None,2026-04-03 20h46.54.874622 +0200,
,172,0,172,,,,None,None,,,,,,,,,,,,,172,0,172,0,2457.1333495000144,,,,,,,,,,,,,,,clips/clip_herz_07_nosub_2.mp4,audios/silence.mp3,visual,[],None,None,,,,,,112,A,2026-04-03_20h46.53.974,exp_sofc_final,,2025.2.3,None,2026-04-03 20h46.54.874622 +0200,
,173,0,173,,,,None,None,,,,,,,,,,,,,173,0,173,0,2469.9401759169996,,,,,,,,,,,,,,,clips/clip_weißt_02_nosub_0.mp4,audios/clip_weißt_02_nosub_0.mp3,audiovisual,[],None,None,,,,,,112,A,2026-04-03_20h46.53.974,exp_sofc_final,,2025.2.3,None,2026-04-03 20h46.54.874622 +0200,
,174,0,174,,,,None,None,,,,,,,,,,,,,174,0,174,0,2480.712391000008,,,,,,,,,,,,,,,clips/clip_dampf_02_nosub_1.mp4,audios/clip_dampf_02_nosub_1.mp3,audiovisual,[5.390283957996871],None,None,,,,,,112,A,2026-04-03_20h46.53.974,exp_sofc_final,,2025.2.3,None,2026-04-03 20h46.54.874622 +0200,
,175,0,175,,,,None,None,,,,,,,,,,,,,175,0,175,0,2490.8063192499976,,,,,,,,,,,,,,,clips/clip_claude_04_sub_2.mp4,audios/clip_claude_04_sub_2.mp3,audiovisual,[8.640398124000058],None,None,,,,,,112,A,2026-04-03_20h46.53.974,exp_sofc_final,,2025.2.3,None,2026-04-03 20h46.54.874622 +0200,
,176,0,176,,,,None,None,,,,,,,,,,,,,176,0,176,0,2500.6312041670026,,,,,,,,,,,,,,,clips/clip_wurst_18_sub_0.mp4,audios/clip_wurst_18_sub_0.mp3,audiovisual,[],None,None,,,,,,112,A,2026-04-03_20h46.53.974,exp_sofc_final,,2025.2.3,None,2026-04-03 20h46.54.874622 +0200,
,177,0,177,,,,None,None,,,,,,,,,,,,,177,0,177,0,2511.4108871670032,,,,,,,,,,,,,,,clips/clip_claude_12_sub_0.mp4,audios/clip_claude_12_sub_0.mp3,audiovisual,[],None,None,,,,,,112,A,2026-04-03_20h46.53.974,exp_sofc_final,,2025.2.3,None,2026-04-03 20h46.54.874622 +0200,
,178,0,178,,,,None,None,,,,,,,,,,,,,178,0,178,0,2521.3969047919963,,,,,,,,,,,,,,,clips/clip_weißt_16_nosub_0.mp4,audios/silence.mp3,visual,[],None,None,,,,,,112,A,2026-04-03_20h46.53.974,exp_sofc_final,,2025.2.3,None,2026-04-03 20h46.54.874622 +0200,
,179,0,179,,,,None,None,,,,,,,,,,,,,179,0,179,0,2532.684766874998,,,,,,,,,,,,,,,clips/clip_weißt_27_nosub_1.mp4,audios/silence.mp3,visual,[8.415171665983507],None,None,,,,,,112,A,2026-04-03_20h46.53.974,exp_sofc_final,,2025.2.3,None,2026-04-03 20h46.54.874622 +0200,
,,,,,,,,,,,,,,,,,,,,,,,,,,,,,,,,,,,,,,,,,,,,,,,,,,,112,A,2026-04-03_20h46.53.974,exp_sofc_final,,2025.2.3,None,2026-04-03 20h46.54.874622 +0200,
