instruction_text,thisN,thisTrialN,thisRepN,prac_attention_resp.keys,prac_attention_resp.rt,prac_attention_resp.duration,exp_atttention_resp.keys,exp_pause_resp.keys,exp_atttention_resp.rt,exp_atttention_resp.duration,exp_pause_resp.rt,exp_pause_resp.duration,instruction_trial.thisRepN,instruction_trial.thisTrialN,instruction_trial.thisN,instruction_trial.thisIndex,practice_trials.thisRepN,practice_trials.thisTrialN,practice_trials.thisN,practice_trials.thisIndex,experiment_trials.thisRepN,experiment_trials.thisTrialN,experiment_trials.thisN,experiment_trials.thisIndex,thisRow.t,notes,assigned_ls_group,slider_informed_consent.response,Practice_clip_name,Practice_video_used,Practice_audio_used,Practice_modality,Practice_subtitles,Practice_attention_check,Practice_all_cut_rts,Practice_correct_key_required,practice_trials.prac_attention_resp.keys,practice_trials.prac_attention_resp.rt,practice_trials.prac_attention_resp.duration,video_used,audio_used,condition_modality,all_cut_rts,experiment_trials.exp_atttention_resp.keys,experiment_trials.exp_pause_resp.keys,correct_key_required,experiment_trials.exp_atttention_resp.rt,experiment_trials.exp_atttention_resp.duration,experiment_trials.exp_pause_resp.rt,experiment_trials.exp_pause_resp.duration,participant,session,date,expName,expVersion,psychopyVersion,frameRate,expStart,
"Einverständniserklärung

Bitte lesen Sie die folgende Erklärung aufmerksam durch:

Ich bestätige, dass ich über 18 Jahre alt bin und ausreichend Zeit hatte, mich für die Teilnahme zu entscheiden. Ich wurde über die Erhebung, Verarbeitung und öffentliche Zugänglichmachung meiner anonymisierten Daten angemessen informiert.
Ich bin mir bewusst, dass ich das Experiment jederzeit abbrechen kann.

(Drücken Sie die Leertaste, um fortzufahren)",4,4,0,,,,,,,,,,0,4,4,4,,,,,,,,,29.219600250013173,,2,ich stimme zu,,,,,,,,,,,,,,,,,,,,,,,115,A,2026-04-04_15h01.12.932,exp_sofc_final,,2025.2.3,None,2026-04-04 15h01.13.856147 +0200,
,,,,,,,,,,,,,,,,,,,,,,,,,,,,,,,,,,,,,,,,,,,,,,,,,,,115,A,2026-04-04_15h01.12.932,exp_sofc_final,,2025.2.3,None,2026-04-04 15h01.13.856147 +0200,
,0,0,0,3,12.42616991698742,None,,,,,,,,,,,0,0,0,0,,,,,54.217981166992104,,,,clip_hund_02_sub_1,clips/clip_hund_02_sub_1.mp4,audios/clip_hund_02_sub_1.mp3,audiovisual,sub,True,[],4,3,12.42616991698742,None,,,,,,,,,,,,115,A,2026-04-04_15h01.12.932,exp_sofc_final,,2025.2.3,None,2026-04-04 15h01.13.856147 +0200,
,1,0,1,2,6.045262999978149,None,,,,,,,,,,,1,0,1,0,,,,,76.78955812499044,,,,clip_weißt_10_nosub_1,clips/clip_weißt_10_nosub_1.mp4,audios/clip_weißt_10_nosub_1.mp3,audiovisual,nosub,True,[5.67004020800232],2,2,6.045262999978149,None,,,,,,,,,,,,115,A,2026-04-04_15h01.12.932,exp_sofc_final,,2025.2.3,None,2026-04-04 15h01.13.856147 +0200,
,2,0,2,None,,,,,,,,,,,,,2,0,2,0,,,,,94.64431612499175,,,,clip_hund_31_sub_0,clips/clip_hund_31_sub_0.mp4,audios/silence.mp3,visual,sub,False,[],,None,,,,,,,,,,,,,,115,A,2026-04-04_15h01.12.932,exp_sofc_final,,2025.2.3,None,2026-04-04 15h01.13.856147 +0200,
,3,0,3,None,,,,,,,,,,,,,3,0,3,0,,,,,103.84281804200145,,,,clip_weißt_09_sub_1,clips/clip_weißt_09_sub_1.mp4,audios/silence.mp3,visual,sub,False,[],,None,,,,,,,,,,,,,,115,A,2026-04-04_15h01.12.932,exp_sofc_final,,2025.2.3,None,2026-04-04 15h01.13.856147 +0200,
,4,0,4,None,,,,,,,,,,,,,4,0,4,0,,,,,113.66705095799989,,,,clip_hund_28_nosub_0,clips/clip_hund_28_nosub_0.mp4,audios/clip_hund_28_nosub_0.mp3,audiovisual,nosub,False,[],,None,,,,,,,,,,,,,,115,A,2026-04-04_15h01.12.932,exp_sofc_final,,2025.2.3,None,2026-04-04 15h01.13.856147 +0200,
,5,0,5,None,,,,,,,,,,,,,5,0,5,0,,,,,124.2968842079863,,,,clip_hund_25_sub_1,clips/clip_hund_25_sub_1.mp4,audios/silence.mp3,visual,sub,False,"[0.5886876240256242, 6.853488749009557]",,None,,,,,,,,,,,,,,115,A,2026-04-04_15h01.12.932,exp_sofc_final,,2025.2.3,None,2026-04-04 15h01.13.856147 +0200,
,6,0,6,None,,,,,,,,,,,,,6,0,6,0,,,,,133.3936274999869,,,,clip_weißt_21_nosub_0,clips/clip_weißt_21_nosub_0.mp4,audios/silence.mp3,visual,nosub,False,[],,None,,,,,,,,,,,,,,115,A,2026-04-04_15h01.12.932,exp_sofc_final,,2025.2.3,None,2026-04-04 15h01.13.856147 +0200,
,7,0,7,None,,,,,,,,,,,,,7,0,7,0,,,,,144.31966445798753,,,,clip_wurst_09_sub_1,clips/clip_wurst_09_sub_1.mp4,audios/clip_wurst_09_sub_1.mp3,audiovisual,sub,False,[0.5215514989977237],,None,,,,,,,,,,,,,,115,A,2026-04-04_15h01.12.932,exp_sofc_final,,2025.2.3,None,2026-04-04 15h01.13.856147 +0200,
,8,0,8,4,10.134743416012498,None,,,,,,,,,,,8,0,8,0,,,,,156.37035149999429,,,,clip_hund_26_sub_1,clips/clip_hund_26_sub_1.mp4,audios/silence.mp3,visual,sub,True,[],4,4,10.134743416012498,None,,,,,,,,,,,,115,A,2026-04-04_15h01.12.932,exp_sofc_final,,2025.2.3,None,2026-04-04 15h01.13.856147 +0200,
,9,0,9,None,,,,,,,,,,,,,9,0,9,0,,,,,176.69042175001232,,,,clip_weißt_18_nosub_1,clips/clip_weißt_18_nosub_1.mp4,audios/silence.mp3,visual,nosub,False,[6.878137332998449],,None,,,,,,,,,,,,,,115,A,2026-04-04_15h01.12.932,exp_sofc_final,,2025.2.3,None,2026-04-04 15h01.13.856147 +0200,
,10,0,10,None,,,,,,,,,,,,,10,0,10,0,,,,,189.45741224999074,,,,clip_hund_06_nosub_0,clips/clip_hund_06_nosub_0.mp4,audios/clip_hund_06_nosub_0.mp3,audiovisual,nosub,False,[],,None,,,,,,,,,,,,,,115,A,2026-04-04_15h01.12.932,exp_sofc_final,,2025.2.3,None,2026-04-04 15h01.13.856147 +0200,
,11,0,11,1,3.5909738739719614,None,,,,,,,,,,,11,0,11,0,,,,,201.1047219579923,,,,clip_weißt_05_sub_0,clips/clip_weißt_05_sub_0.mp4,audios/clip_weißt_05_sub_0.mp3,audiovisual,sub,True,[0.6289494579832535],1,1,3.5909738739719614,None,,,,,,,,,,,,115,A,2026-04-04_15h01.12.932,exp_sofc_final,,2025.2.3,None,2026-04-04 15h01.13.856147 +0200,
,,,,,,,,,,,,,,,,,,,,,,,,,,,,,,,,,,,,,,,,,,,,,,,,,,,115,A,2026-04-04_15h01.12.932,exp_sofc_final,,2025.2.3,None,2026-04-04 15h01.13.856147 +0200,
,0,0,0,,,,None,None,,,,,,,,,,,,,0,0,0,0,244.1701187499857,,,,,,,,,,,,,,,clips/clip_claude_10_sub_0.mp4,audios/clip_claude_10_sub_0.mp3,audiovisual,[],None,None,,,,,,115,A,2026-04-04_15h01.12.932,exp_sofc_final,,2025.2.3,None,2026-04-04 15h01.13.856147 +0200,
,1,0,1,,,,None,None,,,,,,,,,,,,,1,0,1,0,256.1522184580099,,,,,,,,,,,,,,,clips/clip_hund_35_sub_0.mp4,audios/clip_hund_35_sub_0.mp3,audiovisual,[],None,None,,,,,,115,A,2026-04-04_15h01.12.932,exp_sofc_final,,2025.2.3,None,2026-04-04 15h01.13.856147 +0200,
,2,0,2,,,,None,None,,,,,,,,,,,,,2,0,2,0,267.3444373749953,,,,,,,,,,,,,,,clips/clip_hund_21_sub_1.mp4,audios/silence.mp3,visual,[],None,None,,,,,,115,A,2026-04-04_15h01.12.932,exp_sofc_final,,2025.2.3,None,2026-04-04 15h01.13.856147 +0200,
,3,0,3,,,,None,None,,,,,,,,,,,,,3,0,3,0,278.14809008300654,,,,,,,,,,,,,,,clips/clip_weißt_17_sub_0.mp4,audios/clip_weißt_17_sub_0.mp3,audiovisual,[],None,None,,,,,,115,A,2026-04-04_15h01.12.932,exp_sofc_final,,2025.2.3,None,2026-04-04 15h01.13.856147 +0200,
,4,0,4,,,,None,None,,,,,,,,,,,,,4,0,4,0,290.436312750011,,,,,,,,,,,,,,,clips/clip_lied_11_sub_1.mp4,audios/clip_lied_11_sub_1.mp3,audiovisual,[0.46036220801761374],None,None,,,,,,115,A,2026-04-04_15h01.12.932,exp_sofc_final,,2025.2.3,None,2026-04-04 15h01.13.856147 +0200,
,5,0,5,,,,None,None,,,,,,,,,,,,,5,0,5,0,302.2952796249883,,,,,,,,,,,,,,,clips/clip_wurst_22_nosub_0.mp4,audios/clip_wurst_22_nosub_0.mp3,audiovisual,[],None,None,,,,,,115,A,2026-04-04_15h01.12.932,exp_sofc_final,,2025.2.3,None,2026-04-04 15h01.13.856147 +0200,
,6,0,6,,,,None,None,,,,,,,,,,,,,6,0,6,0,314.75038391700946,,,,,,,,,,,,,,,clips/clip_wurst_23_sub_2.mp4,audios/silence.mp3,visual,[8.036023666005349],None,None,,,,,,115,A,2026-04-04_15h01.12.932,exp_sofc_final,,2025.2.3,None,2026-04-04 15h01.13.856147 +0200,
,7,0,7,,,,None,None,,,,,,,,,,,,,7,0,7,0,326.06627816701075,,,,,,,,,,,,,,,clips/clip_claude_24_nosub_1.mp4,audios/clip_claude_24_nosub_1.mp3,audiovisual,[],None,None,,,,,,115,A,2026-04-04_15h01.12.932,exp_sofc_final,,2025.2.3,None,2026-04-04 15h01.13.856147 +0200,
,8,0,8,,,,None,None,,,,,,,,,,,,,8,0,8,0,333.0395415829844,,,,,,,,,,,,,,,clips/clip_lied_09_nosub_1.mp4,audios/clip_lied_09_nosub_1.mp3,audiovisual,[],None,None,,,,,,115,A,2026-04-04_15h01.12.932,exp_sofc_final,,2025.2.3,None,2026-04-04 15h01.13.856147 +0200,
,9,0,9,,,,None,None,,,,,,,,,,,,,9,0,9,0,344.2260048330063,,,,,,,,,,,,,,,clips/clip_hund_05_sub_0.mp4,audios/clip_hund_05_sub_0.mp3,audiovisual,[],None,None,,,,,,115,A,2026-04-04_15h01.12.932,exp_sofc_final,,2025.2.3,None,2026-04-04 15h01.13.856147 +0200,
,10,0,10,,,,None,None,,,,,,,,,,,,,10,0,10,0,356.01623304199893,,,,,,,,,,,,,,,clips/clip_lied_22_nosub_1.mp4,audios/clip_lied_22_nosub_1.mp3,audiovisual,[6.067162874009227],None,None,,,,,,115,A,2026-04-04_15h01.12.932,exp_sofc_final,,2025.2.3,None,2026-04-04 15h01.13.856147 +0200,
,11,0,11,,,,None,None,,,,,,,,,,,,,11,0,11,0,367.2981345420121,,,,,,,,,,,,,,,clips/clip_claude_29_nosub_0.mp4,audios/clip_claude_29_nosub_0.mp3,audiovisual,[],None,None,,,,,,115,A,2026-04-04_15h01.12.932,exp_sofc_final,,2025.2.3,None,2026-04-04 15h01.13.856147 +0200,
,12,0,12,,,,None,None,,,,,,,,,,,,,12,0,12,0,378.0846815420082,,,,,,,,,,,,,,,clips/clip_lied_05_nosub_0.mp4,audios/clip_lied_05_nosub_0.mp3,audiovisual,[0.33436145799350925],None,None,,,,,,115,A,2026-04-04_15h01.12.932,exp_sofc_final,,2025.2.3,None,2026-04-04 15h01.13.856147 +0200,
,13,0,13,,,,None,None,,,,,,,,,,,,,13,0,13,0,388.24770912498934,,,,,,,,,,,,,,,clips/clip_holo_15_sub_0.mp4,audios/clip_holo_15_sub_0.mp3,audiovisual,[6.5426677920040675],None,None,,,,,,115,A,2026-04-04_15h01.12.932,exp_sofc_final,,2025.2.3,None,2026-04-04 15h01.13.856147 +0200,
,14,0,14,,,,None,None,,,,,,,,,,,,,14,0,14,0,398.2003090000071,,,,,,,,,,,,,,,clips/clip_herz_09_nosub_0.mp4,audios/silence.mp3,visual,[],None,None,,,,,,115,A,2026-04-04_15h01.12.932,exp_sofc_final,,2025.2.3,None,2026-04-04 15h01.13.856147 +0200,
,15,0,15,,,,None,None,,,,,,,,,,,,,15,0,15,0,410.48276904199156,,,,,,,,,,,,,,,clips/clip_hund_01_nosub_0.mp4,audios/silence.mp3,visual,[],None,None,,,,,,115,A,2026-04-04_15h01.12.932,exp_sofc_final,,2025.2.3,None,2026-04-04 15h01.13.856147 +0200,
,16,0,16,,,,None,None,,,,,,,,,,,,,16,0,16,0,422.073181957996,,,,,,,,,,,,,,,clips/clip_lied_17_nosub_2.mp4,audios/silence.mp3,visual,[7.816627082997002],None,None,,,,,,115,A,2026-04-04_15h01.12.932,exp_sofc_final,,2025.2.3,None,2026-04-04 15h01.13.856147 +0200,
,17,0,17,,,,None,None,,,,,,,,,,,,,17,0,17,0,432.88041162499576,,,,,,,,,,,,,,,clips/clip_hund_11_nosub_1.mp4,audios/silence.mp3,visual,[6.346125457988819],None,None,,,,,,115,A,2026-04-04_15h01.12.932,exp_sofc_final,,2025.2.3,None,2026-04-04 15h01.13.856147 +0200,
,18,0,18,,,,None,None,,,,,,,,,,,,,18,0,18,0,443.3684015829931,,,,,,,,,,,,,,,clips/clip_claude_23_nosub_0.mp4,audios/silence.mp3,visual,[],None,None,,,,,,115,A,2026-04-04_15h01.12.932,exp_sofc_final,,2025.2.3,None,2026-04-04 15h01.13.856147 +0200,
,19,0,19,,,,None,None,,,,,,,,,,,,,19,0,19,0,456.28939291700954,,,,,,,,,,,,,,,clips/clip_herz_12_sub_0.mp4,audios/clip_herz_12_sub_0.mp3,audiovisual,[6.098502083012136],None,None,,,,,,115,A,2026-04-04_15h01.12.932,exp_sofc_final,,2025.2.3,None,2026-04-04 15h01.13.856147 +0200,
,20,0,20,,,,2,None,4.944044582982315,None,,,,,,,,,,,20,0,20,0,466.13028974999906,,,,,,,,,,,,,,,clips/clip_wurst_34_nosub_2.mp4,audios/clip_wurst_34_nosub_2.mp3,audiovisual,[6.751915958011523],2,None,2,4.944044582982315,None,,,115,A,2026-04-04_15h01.12.932,exp_sofc_final,,2025.2.3,None,2026-04-04 15h01.13.856147 +0200,
,21,0,21,,,,None,None,,,,,,,,,,,,,21,0,21,0,480.4358262500027,,,,,,,,,,,,,,,clips/clip_wurst_07_sub_0.mp4,audios/clip_wurst_07_sub_0.mp3,audiovisual,[],None,None,,,,,,115,A,2026-04-04_15h01.12.932,exp_sofc_final,,2025.2.3,None,2026-04-04 15h01.13.856147 +0200,
,22,0,22,,,,None,None,,,,,,,,,,,,,22,0,22,0,491.17437529200106,,,,,,,,,,,,,,,clips/clip_weißt_07_sub_1.mp4,audios/clip_weißt_07_sub_1.mp3,audiovisual,[],None,None,,,,,,115,A,2026-04-04_15h01.12.932,exp_sofc_final,,2025.2.3,None,2026-04-04 15h01.13.856147 +0200,
,23,0,23,,,,None,None,,,,,,,,,,,,,23,0,23,0,501.65876404198934,,,,,,,,,,,,,,,clips/clip_herz_14_nosub_0.mp4,audios/clip_herz_14_nosub_0.mp3,audiovisual,[],None,None,,,,,,115,A,2026-04-04_15h01.12.932,exp_sofc_final,,2025.2.3,None,2026-04-04 15h01.13.856147 +0200,
,24,0,24,,,,None,None,,,,,,,,,,,,,24,0,24,0,512.9359805000131,,,,,,,,,,,,,,,clips/clip_holo_20_nosub_1.mp4,audios/silence.mp3,visual,[],None,None,,,,,,115,A,2026-04-04_15h01.12.932,exp_sofc_final,,2025.2.3,None,2026-04-04 15h01.13.856147 +0200,
,25,0,25,,,,None,None,,,,,,,,,,,,,25,0,25,0,523.1453812500113,,,,,,,,,,,,,,,clips/clip_herz_17_nosub_0.mp4,audios/silence.mp3,visual,[5.53074824999203],None,None,,,,,,115,A,2026-04-04_15h01.12.932,exp_sofc_final,,2025.2.3,None,2026-04-04 15h01.13.856147 +0200,
,26,0,26,,,,None,None,,,,,,,,,,,,,26,0,26,0,532.1312126670091,,,,,,,,,,,,,,,clips/clip_hund_23_nosub_1.mp4,audios/silence.mp3,visual,[],None,None,,,,,,115,A,2026-04-04_15h01.12.932,exp_sofc_final,,2025.2.3,None,2026-04-04 15h01.13.856147 +0200,
,27,0,27,,,,None,None,,,,,,,,,,,,,27,0,27,0,543.8206324169878,,,,,,,,,,,,,,,clips/clip_claude_16_nosub_1.mp4,audios/clip_claude_16_nosub_1.mp3,audiovisual,[9.385420873994008],None,None,,,,,,115,A,2026-04-04_15h01.12.932,exp_sofc_final,,2025.2.3,None,2026-04-04 15h01.13.856147 +0200,
,28,0,28,,,,None,None,,,,,,,,,,,,,28,0,28,0,555.7842294579896,,,,,,,,,,,,,,,clips/clip_claude_04_nosub_2.mp4,audios/clip_claude_04_nosub_2.mp3,audiovisual,[8.537026123987744],None,None,,,,,,115,A,2026-04-04_15h01.12.932,exp_sofc_final,,2025.2.3,None,2026-04-04 15h01.13.856147 +0200,
,29,0,29,,,,None,None,,,,,,,,,,,,,29,0,29,0,565.5665852919919,,,,,,,,,,,,,,,clips/clip_weißt_22_sub_0.mp4,audios/silence.mp3,visual,[],None,None,,,,,,115,A,2026-04-04_15h01.12.932,exp_sofc_final,,2025.2.3,None,2026-04-04 15h01.13.856147 +0200,
,30,0,30,,,,2,None,7.062640457996167,None,,,,,,,,,,,30,0,30,0,577.4306141250127,,,,,,,,,,,,,,,clips/clip_wurst_10_nosub_2.mp4,audios/clip_wurst_10_nosub_2.mp3,audiovisual,[4.778852832998382],2,None,2,7.062640457996167,None,,,115,A,2026-04-04_15h01.12.932,exp_sofc_final,,2025.2.3,None,2026-04-04 15h01.13.856147 +0200,
,31,0,31,,,,None,None,,,,,,,,,,,,,31,0,31,0,594.0982495830103,,,,,,,,,,,,,,,clips/clip_lied_21_nosub_2.mp4,audios/silence.mp3,visual,"[5.233861415996216, 10.719771625008434]",None,None,,,,,,115,A,2026-04-04_15h01.12.932,exp_sofc_final,,2025.2.3,None,2026-04-04 15h01.13.856147 +0200,
,32,0,32,,,,None,None,,,,,,,,,,,,,32,0,32,0,606.3617020419915,,,,,,,,,,,,,,,clips/clip_holo_28_sub_0.mp4,audios/clip_holo_28_sub_0.mp3,audiovisual,[5.739836332999403],None,None,,,,,,115,A,2026-04-04_15h01.12.932,exp_sofc_final,,2025.2.3,None,2026-04-04 15h01.13.856147 +0200,
,33,0,33,,,,None,None,,,,,,,,,,,,,33,0,33,0,615.6398217499955,,,,,,,,,,,,,,,clips/clip_holo_22_sub_1.mp4,audios/silence.mp3,visual,[9.324481083021965],None,None,,,,,,115,A,2026-04-04_15h01.12.932,exp_sofc_final,,2025.2.3,None,2026-04-04 15h01.13.856147 +0200,
,34,0,34,,,,4,None,6.194282083015423,None,,,,,,,,,,,34,0,34,0,625.6082212500041,,,,,,,,,,,,,,,clips/clip_weißt_06_sub_0.mp4,audios/silence.mp3,visual,[5.841689041000791],4,None,4,6.194282083015423,None,,,115,A,2026-04-04_15h01.12.932,exp_sofc_final,,2025.2.3,None,2026-04-04 15h01.13.856147 +0200,
,35,0,35,,,,2,None,7.759532749012578,None,,,,,,,,,,,35,0,35,0,642.9365905830055,,,,,,,,,,,,,,,clips/clip_wurst_26_nosub_1.mp4,audios/clip_wurst_26_nosub_1.mp3,audiovisual,[10.167470374988625],2,None,2,7.759532749012578,None,,,115,A,2026-04-04_15h01.12.932,exp_sofc_final,,2025.2.3,None,2026-04-04 15h01.13.856147 +0200,
,36,0,36,,,,None,None,,,,,,,,,,,,,36,0,36,0,663.5094990830112,,,,,,,,,,,,,,,clips/clip_wurst_24_sub_1.mp4,audios/clip_wurst_24_sub_1.mp3,audiovisual,[6.596052457985934],None,None,,,,,,115,A,2026-04-04_15h01.12.932,exp_sofc_final,,2025.2.3,None,2026-04-04 15h01.13.856147 +0200,
,37,0,37,,,,1,None,4.370557207992533,None,,,,,,,,,,,37,0,37,0,675.571819875011,,,,,,,,,,,,,,,clips/clip_claude_03_nosub_1.mp4,audios/silence.mp3,visual,[5.344082374998834],1,None,1,4.370557207992533,None,,,115,A,2026-04-04_15h01.12.932,exp_sofc_final,,2025.2.3,None,2026-04-04 15h01.13.856147 +0200,
,38,0,38,,,,None,None,,,,,,,,,,,,,38,0,38,0,692.259370292013,,,,,,,,,,,,,,,clips/clip_lied_19_sub_1.mp4,audios/silence.mp3,visual,[],None,None,,,,,,115,A,2026-04-04_15h01.12.932,exp_sofc_final,,2025.2.3,None,2026-04-04 15h01.13.856147 +0200,
,39,0,39,,,,None,None,,,,,,,,,,,,,39,0,39,0,703.7189653750102,,,,,,,,,,,,,,,clips/clip_lied_01_nosub_1.mp4,audios/clip_lied_01_nosub_1.mp3,audiovisual,[5.060383915988496],None,None,,,,,,115,A,2026-04-04_15h01.12.932,exp_sofc_final,,2025.2.3,None,2026-04-04 15h01.13.856147 +0200,
,40,0,40,,,,None,None,,,,,,,,,,,,,40,0,40,0,714.4991208749998,,,,,,,,,,,,,,,clips/clip_claude_15_nosub_0.mp4,audios/silence.mp3,visual,[],None,None,,,,,,115,A,2026-04-04_15h01.12.932,exp_sofc_final,,2025.2.3,None,2026-04-04 15h01.13.856147 +0200,
,41,0,41,,,,2,None,8.059727791987825,None,,,,,,,,,,,41,0,41,0,727.3044843749958,,,,,,,,,,,,,,,clips/clip_weißt_03_nosub_0.mp4,audios/silence.mp3,visual,[],2,None,3,8.059727791987825,None,,,115,A,2026-04-04_15h01.12.932,exp_sofc_final,,2025.2.3,None,2026-04-04 15h01.13.856147 +0200,
,42,0,42,,,,None,None,,,,,,,,,,,,,42,0,42,0,748.1827696250111,,,,,,,,,,,,,,,clips/clip_wurst_06_sub_2.mp4,audios/silence.mp3,visual,[8.416658623988042],None,None,,,,,,115,A,2026-04-04_15h01.12.932,exp_sofc_final,,2025.2.3,None,2026-04-04 15h01.13.856147 +0200,
,43,0,43,,,,None,None,,,,,,,,,,,,,43,0,43,0,760.0253413750033,,,,,,,,,,,,,,,clips/clip_claude_13_sub_0.mp4,audios/silence.mp3,visual,[],None,None,,,,,,115,A,2026-04-04_15h01.12.932,exp_sofc_final,,2025.2.3,None,2026-04-04 15h01.13.856147 +0200,
,44,0,44,,,,None,None,,,,,,,,,,,,,44,0,44,0,770.0193283749977,,,,,,,,,,,,,,,clips/clip_lied_15_sub_2.mp4,audios/silence.mp3,visual,[7.474662916996749],None,None,,,,,,115,A,2026-04-04_15h01.12.932,exp_sofc_final,,2025.2.3,None,2026-04-04 15h01.13.856147 +0200,
,45,0,45,,,,None,None,,,,,,,,,,,,,45,0,45,0,778.1544920419983,,,,,,,,,,,,,,,clips/clip_weißt_20_nosub_1.mp4,audios/clip_weißt_20_nosub_1.mp3,audiovisual,[8.015491625003051],None,None,,,,,,115,A,2026-04-04_15h01.12.932,exp_sofc_final,,2025.2.3,None,2026-04-04 15h01.13.856147 +0200,
,46,0,46,,,,None,None,,,,,,,,,,,,,46,0,46,0,788.7589973330032,,,,,,,,,,,,,,,clips/clip_weißt_26_nosub_1.mp4,audios/clip_weißt_26_nosub_1.mp3,audiovisual,[7.67695041699335],None,None,,,,,,115,A,2026-04-04_15h01.12.932,exp_sofc_final,,2025.2.3,None,2026-04-04 15h01.13.856147 +0200,
,47,0,47,,,,4,None,6.74905545799993,None,,,,,,,,,,,47,0,47,0,799.7462962919963,,,,,,,,,,,,,,,clips/clip_hund_29_sub_0.mp4,audios/clip_hund_29_sub_0.mp3,audiovisual,[],4,None,4,6.74905545799993,None,,,115,A,2026-04-04_15h01.12.932,exp_sofc_final,,2025.2.3,None,2026-04-04 15h01.13.856147 +0200,
,48,0,48,,,,None,None,,,,,,,,,,,,,48,0,48,0,818.7124238329998,,,,,,,,,,,,,,,clips/clip_lied_04_nosub_0.mp4,audios/silence.mp3,visual,[],None,None,,,,,,115,A,2026-04-04_15h01.12.932,exp_sofc_final,,2025.2.3,None,2026-04-04 15h01.13.856147 +0200,
,49,0,49,,,,None,None,,,,,,,,,,,,,49,0,49,0,830.4698002079967,,,,,,,,,,,,,,,clips/clip_wurst_15_sub_2.mp4,audios/silence.mp3,visual,[5.932252750004409],None,None,,,,,,115,A,2026-04-04_15h01.12.932,exp_sofc_final,,2025.2.3,None,2026-04-04 15h01.13.856147 +0200,
,50,0,50,,,,None,None,,,,,,,,,,,,,50,0,50,0,840.6716236670036,,,,,,,,,,,,,,,clips/clip_herz_04_sub_0.mp4,audios/clip_herz_04_sub_0.mp3,audiovisual,[8.032154082990019],None,None,,,,,,115,A,2026-04-04_15h01.12.932,exp_sofc_final,,2025.2.3,None,2026-04-04 15h01.13.856147 +0200,
,51,0,51,,,,None,None,,,,,,,,,,,,,51,0,51,0,852.4653164999909,,,,,,,,,,,,,,,clips/clip_lied_16_sub_2.mp4,audios/clip_lied_16_sub_2.mp3,audiovisual,[],None,None,,,,,,115,A,2026-04-04_15h01.12.932,exp_sofc_final,,2025.2.3,None,2026-04-04 15h01.13.856147 +0200,
,52,0,52,,,,None,None,,,,,,,,,,,,,52,0,52,0,863.8114209999912,,,,,,,,,,,,,,,clips/clip_holo_26_nosub_2.mp4,audios/clip_holo_26_nosub_2.mp3,audiovisual,[6.234462374995928],None,None,,,,,,115,A,2026-04-04_15h01.12.932,exp_sofc_final,,2025.2.3,None,2026-04-04 15h01.13.856147 +0200,
,53,0,53,,,,1,None,3.943002999993041,None,,,,,,,,,,,53,0,53,0,873.783578750008,,,,,,,,,,,,,,,clips/clip_claude_07_nosub_0.mp4,audios/silence.mp3,visual,[],1,None,1,3.943002999993041,None,,,115,A,2026-04-04_15h01.12.932,exp_sofc_final,,2025.2.3,None,2026-04-04 15h01.13.856147 +0200,
,54,0,54,,,,None,None,,,,,,,,,,,,,54,0,54,0,888.552165208006,,,,,,,,,,,,,,,clips/clip_claude_21_sub_1.mp4,audios/silence.mp3,visual,[9.883256791013991],None,None,,,,,,115,A,2026-04-04_15h01.12.932,exp_sofc_final,,2025.2.3,None,2026-04-04 15h01.13.856147 +0200,
,55,0,55,,,,None,None,,,,,,,,,,,,,55,0,55,0,901.5769993749855,,,,,,,,,,,,,,,clips/clip_holo_07_sub_0.mp4,audios/clip_holo_07_sub_0.mp3,audiovisual,[],None,None,,,,,,115,A,2026-04-04_15h01.12.932,exp_sofc_final,,2025.2.3,None,2026-04-04 15h01.13.856147 +0200,
,56,0,56,,,,2,None,5.545555415999843,None,,,,,,,,,,,56,0,56,0,911.7498729169893,,,,,,,,,,,,,,,clips/clip_holo_09_nosub_2.mp4,audios/clip_holo_09_nosub_2.mp3,audiovisual,[],2,None,2,5.545555415999843,None,,,115,A,2026-04-04_15h01.12.932,exp_sofc_final,,2025.2.3,None,2026-04-04 15h01.13.856147 +0200,
,57,0,57,,,,None,None,,,,,,,,,,,,,57,0,57,0,929.5073293329915,,,,,,,,,,,,,,,clips/clip_weißt_29_nosub_1.mp4,audios/silence.mp3,visual,[],None,None,,,,,,115,A,2026-04-04_15h01.12.932,exp_sofc_final,,2025.2.3,None,2026-04-04 15h01.13.856147 +0200,
,58,0,58,,,,None,None,,,,,,,,,,,,,58,0,58,0,941.8947361669852,,,,,,,,,,,,,,,clips/clip_wurst_36_sub_0.mp4,audios/clip_wurst_36_sub_0.mp3,audiovisual,[],None,None,,,,,,115,A,2026-04-04_15h01.12.932,exp_sofc_final,,2025.2.3,None,2026-04-04 15h01.13.856147 +0200,
,59,0,59,,,,2,space,8.26142795800115,None,6.786214666994056,None,,,,,,,,,59,0,59,0,952.5163697079988,,,,,,,,,,,,,,,clips/clip_wurst_21_nosub_0.mp4,audios/silence.mp3,visual,[],2,space,2,8.26142795800115,None,6.786214666994056,None,115,A,2026-04-04_15h01.12.932,exp_sofc_final,,2025.2.3,None,2026-04-04 15h01.13.856147 +0200,
,60,0,60,,,,2,None,4.031267042009858,None,,,,,,,,,,,60,0,60,0,978.8978229170025,,,,,,,,,,,,,,,clips/clip_claude_25_sub_0.mp4,audios/silence.mp3,visual,[],2,None,2,4.031267042009858,None,,,115,A,2026-04-04_15h01.12.932,exp_sofc_final,,2025.2.3,None,2026-04-04 15h01.13.856147 +0200,
,61,0,61,,,,None,None,,,,,,,,,,,,,61,0,61,0,993.916381041985,,,,,,,,,,,,,,,clips/clip_claude_12_nosub_0.mp4,audios/clip_claude_12_nosub_0.mp3,audiovisual,[],None,None,,,,,,115,A,2026-04-04_15h01.12.932,exp_sofc_final,,2025.2.3,None,2026-04-04 15h01.13.856147 +0200,
,62,0,62,,,,None,None,,,,,,,,,,,,,62,0,62,0,1003.8769757499977,,,,,,,,,,,,,,,clips/clip_claude_17_sub_1.mp4,audios/silence.mp3,visual,[10.635603250004351],None,None,,,,,,115,A,2026-04-04_15h01.12.932,exp_sofc_final,,2025.2.3,None,2026-04-04 15h01.13.856147 +0200,
,63,0,63,,,,None,None,,,,,,,,,,,,,63,0,63,0,1016.1652955829923,,,,,,,,,,,,,,,clips/clip_herz_08_sub_0.mp4,audios/clip_herz_08_sub_0.mp3,audiovisual,[9.506625500012888],None,None,,,,,,115,A,2026-04-04_15h01.12.932,exp_sofc_final,,2025.2.3,None,2026-04-04 15h01.13.856147 +0200,
,64,0,64,,,,1,None,17.089972248999402,None,,,,,,,,,,,64,0,64,0,1029.010713208001,,,,,,,,,,,,,,,clips/clip_holo_06_sub_2.mp4,audios/silence.mp3,visual,"[5.278567375004059, 8.931737583014183]",1,None,1,17.089972248999402,None,,,115,A,2026-04-04_15h01.12.932,exp_sofc_final,,2025.2.3,None,2026-04-04 15h01.13.856147 +0200,
,65,0,65,,,,4,None,11.467138249019627,None,,,,,,,,,,,65,0,65,0,1056.6682022500027,,,,,,,,,,,,,,,clips/clip_claude_11_nosub_0.mp4,audios/silence.mp3,visual,[],4,None,4,11.467138249019627,None,,,115,A,2026-04-04_15h01.12.932,exp_sofc_final,,2025.2.3,None,2026-04-04 15h01.13.856147 +0200,
,66,0,66,,,,None,None,,,,,,,,,,,,,66,0,66,0,1078.9351337919943,,,,,,,,,,,,,,,clips/clip_hund_17_sub_1.mp4,audios/silence.mp3,visual,[7.063142832979793],None,None,,,,,,115,A,2026-04-04_15h01.12.932,exp_sofc_final,,2025.2.3,None,2026-04-04 15h01.13.856147 +0200,
,67,0,67,,,,1,None,2.7159837909857742,None,,,,,,,,,,,67,0,67,0,1091.985218832997,,,,,,,,,,,,,,,clips/clip_hund_36_nosub_2.mp4,audios/silence.mp3,visual,[5.887281417002669],1,None,1,2.7159837909857742,None,,,115,A,2026-04-04_15h01.12.932,exp_sofc_final,,2025.2.3,None,2026-04-04 15h01.13.856147 +0200,
,68,0,68,,,,None,None,,,,,,,,,,,,,68,0,68,0,1104.6662945419957,,,,,,,,,,,,,,,clips/clip_wurst_30_nosub_1.mp4,audios/clip_wurst_30_nosub_1.mp3,audiovisual,[],None,None,,,,,,115,A,2026-04-04_15h01.12.932,exp_sofc_final,,2025.2.3,None,2026-04-04 15h01.13.856147 +0200,
,69,0,69,,,,None,None,,,,,,,,,,,,,69,0,69,0,1115.4605039170128,,,,,,,,,,,,,,,clips/clip_holo_08_nosub_2.mp4,audios/silence.mp3,visual,[9.143123999994714],None,None,,,,,,115,A,2026-04-04_15h01.12.932,exp_sofc_final,,2025.2.3,None,2026-04-04 15h01.13.856147 +0200,
,70,0,70,,,,None,None,,,,,,,,,,,,,70,0,70,0,1127.0381369169918,,,,,,,,,,,,,,,clips/clip_wurst_08_nosub_1.mp4,audios/silence.mp3,visual,[5.367380665993551],None,None,,,,,,115,A,2026-04-04_15h01.12.932,exp_sofc_final,,2025.2.3,None,2026-04-04 15h01.13.856147 +0200,
,71,0,71,,,,None,None,,,,,,,,,,,,,71,0,71,0,1136.3337696669914,,,,,,,,,,,,,,,clips/clip_lied_10_sub_1.mp4,audios/silence.mp3,visual,[4.410053915984463],None,None,,,,,,115,A,2026-04-04_15h01.12.932,exp_sofc_final,,2025.2.3,None,2026-04-04 15h01.13.856147 +0200,
,72,0,72,,,,None,None,,,,,,,,,,,,,72,0,72,0,1148.621236292005,,,,,,,,,,,,,,,clips/clip_holo_18_sub_0.mp4,audios/silence.mp3,visual,[6.677685166010633],None,None,,,,,,115,A,2026-04-04_15h01.12.932,exp_sofc_final,,2025.2.3,None,2026-04-04 15h01.13.856147 +0200,
,73,0,73,,,,None,None,,,,,,,,,,,,,73,0,73,0,1161.2616803749988,,,,,,,,,,,,,,,clips/clip_claude_14_sub_0.mp4,audios/clip_claude_14_sub_0.mp3,audiovisual,"[3.1915208749996964, 8.911399833014002]",None,None,,,,,,115,A,2026-04-04_15h01.12.932,exp_sofc_final,,2025.2.3,None,2026-04-04 15h01.13.856147 +0200,
,74,0,74,,,,None,None,,,,,,,,,,,,,74,0,74,0,1173.1163148329942,,,,,,,,,,,,,,,clips/clip_wurst_18_nosub_0.mp4,audios/clip_wurst_18_nosub_0.mp3,audiovisual,[],None,None,,,,,,115,A,2026-04-04_15h01.12.932,exp_sofc_final,,2025.2.3,None,2026-04-04 15h01.13.856147 +0200,
,75,0,75,,,,None,None,,,,,,,,,,,,,75,0,75,0,1183.9144116670068,,,,,,,,,,,,,,,clips/clip_wurst_35_sub_0.mp4,audios/silence.mp3,visual,[7.5134873329952825],None,None,,,,,,115,A,2026-04-04_15h01.12.932,exp_sofc_final,,2025.2.3,None,2026-04-04 15h01.13.856147 +0200,
,76,0,76,,,,1,None,6.866971500014188,None,,,,,,,,,,,76,0,76,0,1193.9681309169973,,,,,,,,,,,,,,,clips/clip_herz_11_sub_0.mp4,audios/silence.mp3,visual,[5.0454635829955805],1,None,3,6.866971500014188,None,,,115,A,2026-04-04_15h01.12.932,exp_sofc_final,,2025.2.3,None,2026-04-04 15h01.13.856147 +0200,
,77,0,77,,,,None,None,,,,,,,,,,,,,77,0,77,0,1210.9172897500102,,,,,,,,,,,,,,,clips/clip_holo_04_nosub_2.mp4,audios/silence.mp3,visual,"[3.121822000015527, 7.043741875007981]",None,None,,,,,,115,A,2026-04-04_15h01.12.932,exp_sofc_final,,2025.2.3,None,2026-04-04 15h01.13.856147 +0200,
,78,0,78,,,,3,None,9.703027165989624,None,,,,,,,,,,,78,0,78,0,1223.7021157080017,,,,,,,,,,,,,,,clips/clip_holo_13_nosub_1.mp4,audios/clip_holo_13_nosub_1.mp3,audiovisual,[4.461579541006358],3,None,3,9.703027165989624,None,,,115,A,2026-04-04_15h01.12.932,exp_sofc_final,,2025.2.3,None,2026-04-04 15h01.13.856147 +0200,
,79,0,79,,,,None,None,,,,,,,,,,,,,79,0,79,0,1246.035054042004,,,,,,,,,,,,,,,clips/clip_hund_24_nosub_1.mp4,audios/clip_hund_24_nosub_1.mp3,audiovisual,[8.346919167001033],None,None,,,,,,115,A,2026-04-04_15h01.12.932,exp_sofc_final,,2025.2.3,None,2026-04-04 15h01.13.856147 +0200,
,80,0,80,,,,None,None,,,,,,,,,,,,,80,0,80,0,1258.812527333008,,,,,,,,,,,,,,,clips/clip_dampf_02_sub_1.mp4,audios/clip_dampf_02_sub_1.mp3,audiovisual,[],None,None,,,,,,115,A,2026-04-04_15h01.12.932,exp_sofc_final,,2025.2.3,None,2026-04-04 15h01.13.856147 +0200,
,81,0,81,,,,None,None,,,,,,,,,,,,,81,0,81,0,1268.9124699579843,,,,,,,,,,,,,,,clips/clip_holo_12_nosub_1.mp4,audios/silence.mp3,visual,[8.601883374998579],None,None,,,,,,115,A,2026-04-04_15h01.12.932,exp_sofc_final,,2025.2.3,None,2026-04-04 15h01.13.856147 +0200,
,82,0,82,,,,None,None,,,,,,,,,,,,,82,0,82,0,1279.7028587920067,,,,,,,,,,,,,,,clips/clip_holo_17_nosub_0.mp4,audios/clip_holo_17_nosub_0.mp3,audiovisual,[],None,None,,,,,,115,A,2026-04-04_15h01.12.932,exp_sofc_final,,2025.2.3,None,2026-04-04 15h01.13.856147 +0200,
,83,0,83,,,,None,None,,,,,,,,,,,,,83,0,83,0,1290.280562208005,,,,,,,,,,,,,,,clips/clip_weißt_16_sub_0.mp4,audios/silence.mp3,visual,[],None,None,,,,,,115,A,2026-04-04_15h01.12.932,exp_sofc_final,,2025.2.3,None,2026-04-04 15h01.13.856147 +0200,
,84,0,84,,,,None,None,,,,,,,,,,,,,84,0,84,0,1301.579385582998,,,,,,,,,,,,,,,clips/clip_herz_13_nosub_0.mp4,audios/silence.mp3,visual,"[0.529795375012327, 7.765229833021294]",None,None,,,,,,115,A,2026-04-04_15h01.12.932,exp_sofc_final,,2025.2.3,None,2026-04-04 15h01.13.856147 +0200,
,85,0,85,,,,None,None,,,,,,,,,,,,,85,0,85,0,1313.5691745830118,,,,,,,,,,,,,,,clips/clip_herz_02_nosub_0.mp4,audios/clip_herz_02_nosub_0.mp3,audiovisual,[9.13331441601622],None,None,,,,,,115,A,2026-04-04_15h01.12.932,exp_sofc_final,,2025.2.3,None,2026-04-04 15h01.13.856147 +0200,
,86,0,86,,,,None,None,,,,,,,,,,,,,86,0,86,0,1326.720148374996,,,,,,,,,,,,,,,clips/clip_dampf_03_nosub_1.mp4,audios/silence.mp3,visual,[7.686071083007846],None,None,,,,,,115,A,2026-04-04_15h01.12.932,exp_sofc_final,,2025.2.3,None,2026-04-04 15h01.13.856147 +0200,
,87,0,87,,,,None,None,,,,,,,,,,,,,87,0,87,0,1335.1059234999993,,,,,,,,,,,,,,,clips/clip_weißt_19_nosub_1.mp4,audios/silence.mp3,visual,[4.537544833001448],None,None,,,,,,115,A,2026-04-04_15h01.12.932,exp_sofc_final,,2025.2.3,None,2026-04-04 15h01.13.856147 +0200,
,88,0,88,,,,None,None,,,,,,,,,,,,,88,0,88,0,1345.9034695420123,,,,,,,,,,,,,,,clips/clip_lied_08_nosub_1.mp4,audios/silence.mp3,visual,[7.559329290990718],None,None,,,,,,115,A,2026-04-04_15h01.12.932,exp_sofc_final,,2025.2.3,None,2026-04-04 15h01.13.856147 +0200,
,89,0,89,,,,None,None,,,,,,,,,,,,,89,0,89,0,1355.792268958001,,,,,,,,,,,,,,,clips/clip_hund_03_nosub_1.mp4,audios/clip_hund_03_nosub_1.mp3,audiovisual,[6.530118124996079],None,None,,,,,,115,A,2026-04-04_15h01.12.932,exp_sofc_final,,2025.2.3,None,2026-04-04 15h01.13.856147 +0200,
,90,0,90,,,,None,None,,,,,,,,,,,,,90,0,90,0,1368.4664851250127,,,,,,,,,,,,,,,clips/clip_wurst_14_nosub_1.mp4,audios/clip_wurst_14_nosub_1.mp3,audiovisual,[7.798270375002176],None,None,,,,,,115,A,2026-04-04_15h01.12.932,exp_sofc_final,,2025.2.3,None,2026-04-04 15h01.13.856147 +0200,
,91,0,91,,,,None,None,,,,,,,,,,,,,91,0,91,0,1379.2807188330044,,,,,,,,,,,,,,,clips/clip_hund_18_sub_1.mp4,audios/clip_hund_18_sub_1.mp3,audiovisual,[6.960816999984672],None,None,,,,,,115,A,2026-04-04_15h01.12.932,exp_sofc_final,,2025.2.3,None,2026-04-04 15h01.13.856147 +0200,
,92,0,92,,,,3,None,14.073418457992375,None,,,,,,,,,,,92,0,92,0,1390.0478527079977,,,,,,,,,,,,,,,clips/clip_wurst_01_sub_0.mp4,audios/silence.mp3,visual,[],3,None,3,14.073418457992375,None,,,115,A,2026-04-04_15h01.12.932,exp_sofc_final,,2025.2.3,None,2026-04-04 15h01.13.856147 +0200,
,93,0,93,,,,None,None,,,,,,,,,,,,,93,0,93,0,1414.860671708011,,,,,,,,,,,,,,,clips/clip_claude_01_sub_2.mp4,audios/silence.mp3,visual,"[6.951343499997165, 9.205442915990716]",None,None,,,,,,115,A,2026-04-04_15h01.12.932,exp_sofc_final,,2025.2.3,None,2026-04-04 15h01.13.856147 +0200,
,94,0,94,,,,4,None,18.802123833011137,None,,,,,,,,,,,94,0,94,0,1426.577655583009,,,,,,,,,,,,,,,clips/clip_holo_27_sub_1.mp4,audios/silence.mp3,visual,[5.668617582996376],4,None,4,18.802123833011137,None,,,115,A,2026-04-04_15h01.12.932,exp_sofc_final,,2025.2.3,None,2026-04-04 15h01.13.856147 +0200,
,95,0,95,,,,None,None,,,,,,,,,,,,,95,0,95,0,1456.2321301669872,,,,,,,,,,,,,,,clips/clip_holo_23_sub_1.mp4,audios/clip_holo_23_sub_1.mp3,audiovisual,[],None,None,,,,,,115,A,2026-04-04_15h01.12.932,exp_sofc_final,,2025.2.3,None,2026-04-04 15h01.13.856147 +0200,
,96,0,96,,,,None,None,,,,,,,,,,,,,96,0,96,0,1467.0333016669902,,,,,,,,,,,,,,,clips/clip_weißt_23_sub_1.mp4,audios/clip_weißt_23_sub_1.mp3,audiovisual,[8.439207165996777],None,None,,,,,,115,A,2026-04-04_15h01.12.932,exp_sofc_final,,2025.2.3,None,2026-04-04 15h01.13.856147 +0200,
,97,0,97,,,,2,None,7.582430165988626,None,,,,,,,,,,,97,0,97,0,1479.2219097919879,,,,,,,,,,,,,,,clips/clip_hund_12_nosub_1.mp4,audios/clip_hund_12_nosub_1.mp3,audiovisual,[9.920327958010603],2,None,2,7.582430165988626,None,,,115,A,2026-04-04_15h01.12.932,exp_sofc_final,,2025.2.3,None,2026-04-04 15h01.13.856147 +0200,
,98,0,98,,,,None,None,,,,,,,,,,,,,98,0,98,0,1498.8495829169988,,,,,,,,,,,,,,,clips/clip_weißt_04_nosub_0.mp4,audios/clip_weißt_04_nosub_0.mp3,audiovisual,[],None,None,,,,,,115,A,2026-04-04_15h01.12.932,exp_sofc_final,,2025.2.3,None,2026-04-04 15h01.13.856147 +0200,
,99,0,99,,,,None,None,,,,,,,,,,,,,99,0,99,0,1509.6927631669969,,,,,,,,,,,,,,,clips/clip_claude_02_sub_1.mp4,audios/clip_claude_02_sub_1.mp3,audiovisual,[5.943115249014227],None,None,,,,,,115,A,2026-04-04_15h01.12.932,exp_sofc_final,,2025.2.3,None,2026-04-04 15h01.13.856147 +0200,
,100,0,100,,,,None,None,,,,,,,,,,,,,100,0,100,0,1520.2929676669883,,,,,,,,,,,,,,,clips/clip_holo_19_sub_1.mp4,audios/clip_holo_19_sub_1.mp3,audiovisual,[6.5983457079855725],None,None,,,,,,115,A,2026-04-04_15h01.12.932,exp_sofc_final,,2025.2.3,None,2026-04-04 15h01.13.856147 +0200,
,101,0,101,,,,None,None,,,,,,,,,,,,,101,0,101,0,1531.0854544999893,,,,,,,,,,,,,,,clips/clip_wurst_25_nosub_1.mp4,audios/silence.mp3,visual,[],None,None,,,,,,115,A,2026-04-04_15h01.12.932,exp_sofc_final,,2025.2.3,None,2026-04-04 15h01.13.856147 +0200,
,102,0,102,,,,None,None,,,,,,,,,,,,,102,0,102,0,1543.0794981670042,,,,,,,,,,,,,,,clips/clip_hund_08_nosub_1.mp4,audios/clip_hund_08_nosub_1.mp3,audiovisual,[],None,None,,,,,,115,A,2026-04-04_15h01.12.932,exp_sofc_final,,2025.2.3,None,2026-04-04 15h01.13.856147 +0200,
,103,0,103,,,,None,None,,,,,,,,,,,,,103,0,103,0,1553.8533526250103,,,,,,,,,,,,,,,clips/clip_claude_06_sub_1.mp4,audios/clip_claude_06_sub_1.mp3,audiovisual,[],None,None,,,,,,115,A,2026-04-04_15h01.12.932,exp_sofc_final,,2025.2.3,None,2026-04-04 15h01.13.856147 +0200,
,104,0,104,,,,None,None,,,,,,,,,,,,,104,0,104,0,1567.1679412499943,,,,,,,,,,,,,,,clips/clip_dampf_05_sub_2.mp4,audios/silence.mp3,visual,[3.7398163330217358],None,None,,,,,,115,A,2026-04-04_15h01.12.932,exp_sofc_final,,2025.2.3,None,2026-04-04 15h01.13.856147 +0200,
,105,0,105,,,,None,None,,,,,,,,,,,,,105,0,105,0,1576.6357222500083,,,,,,,,,,,,,,,clips/clip_hund_22_sub_1.mp4,audios/clip_hund_22_sub_1.mp3,audiovisual,[8.965613958018366],None,None,,,,,,115,A,2026-04-04_15h01.12.932,exp_sofc_final,,2025.2.3,None,2026-04-04 15h01.13.856147 +0200,
,106,0,106,,,,None,None,,,,,,,,,,,,,106,0,106,0,1587.4174224169983,,,,,,,,,,,,,,,clips/clip_holo_24_nosub_2.mp4,audios/silence.mp3,visual,"[7.24960529099917, 9.805598415987333]",None,None,,,,,,115,A,2026-04-04_15h01.12.932,exp_sofc_final,,2025.2.3,None,2026-04-04 15h01.13.856147 +0200,
,107,0,107,,,,None,None,,,,,,,,,,,,,107,0,107,0,1598.0160051250132,,,,,,,,,,,,,,,clips/clip_wurst_11_sub_0.mp4,audios/silence.mp3,visual,[12.048695125005906],None,None,,,,,,115,A,2026-04-04_15h01.12.932,exp_sofc_final,,2025.2.3,None,2026-04-04 15h01.13.856147 +0200,
,108,0,108,,,,None,None,,,,,,,,,,,,,108,0,108,0,1610.7804485420056,,,,,,,,,,,,,,,clips/clip_wurst_33_nosub_0.mp4,audios/silence.mp3,visual,[],None,None,,,,,,115,A,2026-04-04_15h01.12.932,exp_sofc_final,,2025.2.3,None,2026-04-04 15h01.13.856147 +0200,
,109,0,109,,,,None,None,,,,,,,,,,,,,109,0,109,0,1621.2949296669976,,,,,,,,,,,,,,,clips/clip_weißt_15_nosub_1.mp4,audios/clip_weißt_15_nosub_1.mp3,audiovisual,[5.1282974159985315],None,None,,,,,,115,A,2026-04-04_15h01.12.932,exp_sofc_final,,2025.2.3,None,2026-04-04 15h01.13.856147 +0200,
,110,0,110,,,,None,None,,,,,,,,,,,,,110,0,110,0,1632.9920364579884,,,,,,,,,,,,,,,clips/clip_herz_16_sub_0.mp4,audios/clip_herz_16_sub_0.mp3,audiovisual,[],None,None,,,,,,115,A,2026-04-04_15h01.12.932,exp_sofc_final,,2025.2.3,None,2026-04-04 15h01.13.856147 +0200,
,111,0,111,,,,None,None,,,,,,,,,,,,,111,0,111,0,1642.7645769999945,,,,,,,,,,,,,,,clips/clip_hund_30_nosub_0.mp4,audios/silence.mp3,visual,[],None,None,,,,,,115,A,2026-04-04_15h01.12.932,exp_sofc_final,,2025.2.3,None,2026-04-04 15h01.13.856147 +0200,
,112,0,112,,,,None,None,,,,,,,,,,,,,112,0,112,0,1655.5609280829958,,,,,,,,,,,,,,,clips/clip_hund_15_nosub_1.mp4,audios/silence.mp3,visual,[],None,None,,,,,,115,A,2026-04-04_15h01.12.932,exp_sofc_final,,2025.2.3,None,2026-04-04 15h01.13.856147 +0200,
,113,0,113,,,,None,None,,,,,,,,,,,,,113,0,113,0,1666.7680659169855,,,,,,,,,,,,,,,clips/clip_wurst_12_sub_0.mp4,audios/clip_wurst_12_sub_0.mp3,audiovisual,[],None,None,,,,,,115,A,2026-04-04_15h01.12.932,exp_sofc_final,,2025.2.3,None,2026-04-04 15h01.13.856147 +0200,
,114,0,114,,,,None,None,,,,,,,,,,,,,114,0,114,0,1676.156111166987,,,,,,,,,,,,,,,clips/clip_wurst_03_sub_1.mp4,audios/clip_wurst_03_sub_1.mp3,audiovisual,[4.512788958003512],None,None,,,,,,115,A,2026-04-04_15h01.12.932,exp_sofc_final,,2025.2.3,None,2026-04-04 15h01.13.856147 +0200,
,115,0,115,,,,None,None,,,,,,,,,,,,,115,0,115,0,1688.8449149999942,,,,,,,,,,,,,,,clips/clip_wurst_19_sub_0.mp4,audios/silence.mp3,visual,[],None,None,,,,,,115,A,2026-04-04_15h01.12.932,exp_sofc_final,,2025.2.3,None,2026-04-04 15h01.13.856147 +0200,
,116,0,116,,,,4,None,19.887746916996548,None,,,,,,,,,,,116,0,116,0,1700.6388660419907,,,,,,,,,,,,,,,clips/clip_holo_14_sub_0.mp4,audios/silence.mp3,visual,[],4,None,4,19.887746916996548,None,,,115,A,2026-04-04_15h01.12.932,exp_sofc_final,,2025.2.3,None,2026-04-04 15h01.13.856147 +0200,
,117,0,117,,,,None,None,,,,,,,,,,,,,117,0,117,0,1731.3730819580087,,,,,,,,,,,,,,,clips/clip_herz_10_nosub_0.mp4,audios/clip_herz_10_nosub_0.mp3,audiovisual,[],None,None,,,,,,115,A,2026-04-04_15h01.12.932,exp_sofc_final,,2025.2.3,None,2026-04-04 15h01.13.856147 +0200,
,118,0,118,,,,None,None,,,,,,,,,,,,,118,0,118,0,1742.1353883330012,,,,,,,,,,,,,,,clips/clip_holo_05_nosub_2.mp4,audios/clip_holo_05_nosub_2.mp3,audiovisual,[7.103686749993358],None,None,,,,,,115,A,2026-04-04_15h01.12.932,exp_sofc_final,,2025.2.3,None,2026-04-04 15h01.13.856147 +0200,
,119,0,119,,,,None,space,,,0.5391511670022737,None,,,,,,,,,119,0,119,0,1752.0474299580092,,,,,,,,,,,,,,,clips/clip_hund_19_nosub_0.mp4,audios/silence.mp3,visual,[],None,space,,,,0.5391511670022737,None,115,A,2026-04-04_15h01.12.932,exp_sofc_final,,2025.2.3,None,2026-04-04 15h01.13.856147 +0200,
,120,0,120,,,,None,None,,,,,,,,,,,,,120,0,120,0,1764.7429283749952,,,,,,,,,,,,,,,clips/clip_hund_09_sub_2.mp4,audios/silence.mp3,visual,[10.669039541011443],None,None,,,,,,115,A,2026-04-04_15h01.12.932,exp_sofc_final,,2025.2.3,None,2026-04-04 15h01.13.856147 +0200,
,121,0,121,,,,3,None,6.189527875016211,None,,,,,,,,,,,121,0,121,0,1777.0414130830031,,,,,,,,,,,,,,,clips/clip_hund_10_sub_0.mp4,audios/clip_hund_10_sub_0.mp3,audiovisual,[],3,None,3,6.189527875016211,None,,,115,A,2026-04-04_15h01.12.932,exp_sofc_final,,2025.2.3,None,2026-04-04 15h01.13.856147 +0200,
,122,0,122,,,,None,None,,,,,,,,,,,,,122,0,122,0,1793.550167999987,,,,,,,,,,,,,,,clips/clip_herz_01_nosub_1.mp4,audios/silence.mp3,visual,[],None,None,,,,,,115,A,2026-04-04_15h01.12.932,exp_sofc_final,,2025.2.3,None,2026-04-04 15h01.13.856147 +0200,
,123,0,123,,,,None,None,,,,,,,,,,,,,123,0,123,0,1804.9170696669898,,,,,,,,,,,,,,,clips/clip_wurst_32_sub_1.mp4,audios/clip_wurst_32_sub_1.mp3,audiovisual,[7.381664249987807],None,None,,,,,,115,A,2026-04-04_15h01.12.932,exp_sofc_final,,2025.2.3,None,2026-04-04 15h01.13.856147 +0200,
,124,0,124,,,,None,None,,,,,,,,,,,,,124,0,124,0,1816.2939079999924,,,,,,,,,,,,,,,clips/clip_holo_02_sub_2.mp4,audios/silence.mp3,visual,"[5.673873874999117, 8.496796874998836]",None,None,,,,,,115,A,2026-04-04_15h01.12.932,exp_sofc_final,,2025.2.3,None,2026-04-04 15h01.13.856147 +0200,
,125,0,125,,,,None,None,,,,,,,,,,,,,125,0,125,0,1828.2852316669887,,,,,,,,,,,,,,,clips/clip_wurst_28_sub_1.mp4,audios/clip_wurst_28_sub_1.mp3,audiovisual,[],None,None,,,,,,115,A,2026-04-04_15h01.12.932,exp_sofc_final,,2025.2.3,None,2026-04-04 15h01.13.856147 +0200,
,126,0,126,,,,None,None,,,,,,,,,,,,,126,0,126,0,1839.4051695420058,,,,,,,,,,,,,,,clips/clip_wurst_20_sub_0.mp4,audios/clip_wurst_20_sub_0.mp3,audiovisual,[],None,None,,,,,,115,A,2026-04-04_15h01.12.932,exp_sofc_final,,2025.2.3,None,2026-04-04 15h01.13.856147 +0200,
,127,0,127,,,,None,None,,,,,,,,,,,,,127,0,127,0,1850.1674395829905,,,,,,,,,,,,,,,clips/clip_wurst_29_nosub_1.mp4,audios/silence.mp3,visual,[],None,None,,,,,,115,A,2026-04-04_15h01.12.932,exp_sofc_final,,2025.2.3,None,2026-04-04 15h01.13.856147 +0200,
,128,0,128,,,,None,None,,,,,,,,,,,,,128,0,128,0,1863.0012601669878,,,,,,,,,,,,,,,clips/clip_lied_20_sub_2.mp4,audios/clip_lied_20_sub_2.mp3,audiovisual,"[3.9262680830142926, 8.564210500015179]",None,None,,,,,,115,A,2026-04-04_15h01.12.932,exp_sofc_final,,2025.2.3,None,2026-04-04 15h01.13.856147 +0200,
,129,0,129,,,,None,None,,,,,,,,,,,,,129,0,129,0,1874.4758035000123,,,,,,,,,,,,,,,clips/clip_lied_07_sub_1.mp4,audios/clip_lied_07_sub_1.mp3,audiovisual,[4.710266375011997],None,None,,,,,,115,A,2026-04-04_15h01.12.932,exp_sofc_final,,2025.2.3,None,2026-04-04 15h01.13.856147 +0200,
,130,0,130,,,,None,None,,,,,,,,,,,,,130,0,130,0,1884.2452490419964,,,,,,,,,,,,,,,clips/clip_wurst_31_sub_1.mp4,audios/silence.mp3,visual,[],None,None,,,,,,115,A,2026-04-04_15h01.12.932,exp_sofc_final,,2025.2.3,None,2026-04-04 15h01.13.856147 +0200,
,131,0,131,,,,None,None,,,,,,,,,,,,,131,0,131,0,1896.0319828329957,,,,,,,,,,,,,,,clips/clip_herz_06_nosub_2.mp4,audios/clip_herz_06_nosub_2.mp3,audiovisual,[],None,None,,,,,,115,A,2026-04-04_15h01.12.932,exp_sofc_final,,2025.2.3,None,2026-04-04 15h01.13.856147 +0200,
,132,0,132,,,,None,None,,,,,,,,,,,,,132,0,132,0,1907.365187791991,,,,,,,,,,,,,,,clips/clip_wurst_04_nosub_2.mp4,audios/silence.mp3,visual,"[4.626179625018267, 7.057186582998838]",None,None,,,,,,115,A,2026-04-04_15h01.12.932,exp_sofc_final,,2025.2.3,None,2026-04-04 15h01.13.856147 +0200,
,133,0,133,,,,None,None,,,,,,,,,,,,,133,0,133,0,1919.8173107499897,,,,,,,,,,,,,,,clips/clip_holo_21_nosub_1.mp4,audios/clip_holo_21_nosub_1.mp3,audiovisual,[4.725261875020806],None,None,,,,,,115,A,2026-04-04_15h01.12.932,exp_sofc_final,,2025.2.3,None,2026-04-04 15h01.13.856147 +0200,
,134,0,134,,,,None,None,,,,,,,,,,,,,134,0,134,0,1930.7842220829916,,,,,,,,,,,,,,,clips/clip_lied_02_sub_2.mp4,audios/silence.mp3,visual,[9.614241250004852],None,None,,,,,,115,A,2026-04-04_15h01.12.932,exp_sofc_final,,2025.2.3,None,2026-04-04 15h01.13.856147 +0200,
,135,0,135,,,,3,None,8.45378029200947,None,,,,,,,,,,,135,0,135,0,1942.5852603749954,,,,,,,,,,,,,,,clips/clip_claude_22_sub_2.mp4,audios/clip_claude_22_sub_2.mp3,audiovisual,[8.183218624995789],3,None,3,8.45378029200947,None,,,115,A,2026-04-04_15h01.12.932,exp_sofc_final,,2025.2.3,None,2026-04-04 15h01.13.856147 +0200,
,136,0,136,,,,None,None,,,,,,,,,,,,,136,0,136,0,1962.6076299579872,,,,,,,,,,,,,,,clips/clip_weißt_27_sub_1.mp4,audios/silence.mp3,visual,[8.118291082995711],None,None,,,,,,115,A,2026-04-04_15h01.12.932,exp_sofc_final,,2025.2.3,None,2026-04-04 15h01.13.856147 +0200,
,137,0,137,,,,None,None,,,,,,,,,,,,,137,0,137,0,1973.4568000829895,,,,,,,,,,,,,,,clips/clip_hund_20_nosub_0.mp4,audios/clip_hund_20_nosub_0.mp3,audiovisual,[],None,None,,,,,,115,A,2026-04-04_15h01.12.932,exp_sofc_final,,2025.2.3,None,2026-04-04 15h01.13.856147 +0200,
,138,0,138,,,,None,None,,,,,,,,,,,,,138,0,138,0,1985.7295041669859,,,,,,,,,,,,,,,clips/clip_hund_32_nosub_1.mp4,audios/clip_hund_32_nosub_1.mp3,audiovisual,[4.862986708001699],None,None,,,,,,115,A,2026-04-04_15h01.12.932,exp_sofc_final,,2025.2.3,None,2026-04-04 15h01.13.856147 +0200,
,139,0,139,,,,None,None,,,,,,,,,,,,,139,0,139,0,1996.5212495420128,,,,,,,,,,,,,,,clips/clip_weißt_14_nosub_2.mp4,audios/silence.mp3,visual,"[2.979626458021812, 8.139464000007138]",None,None,,,,,,115,A,2026-04-04_15h01.12.932,exp_sofc_final,,2025.2.3,None,2026-04-04 15h01.13.856147 +0200,
,140,0,140,,,,2,None,4.189676332985982,None,,,,,,,,,,,140,0,140,0,2006.2391012079897,,,,,,,,,,,,,,,clips/clip_claude_26_sub_0.mp4,audios/clip_claude_26_sub_0.mp3,audiovisual,[5.635369416006142],2,None,2,4.189676332985982,None,,,115,A,2026-04-04_15h01.12.932,exp_sofc_final,,2025.2.3,None,2026-04-04 15h01.13.856147 +0200,
,141,0,141,,,,None,None,,,,,,,,,,,,,141,0,141,0,2022.152242125012,,,,,,,,,,,,,,,clips/clip_herz_15_sub_0.mp4,audios/silence.mp3,visual,[4.690282166993711],None,None,,,,,,115,A,2026-04-04_15h01.12.932,exp_sofc_final,,2025.2.3,None,2026-04-04 15h01.13.856147 +0200,
,142,0,142,,,,3,None,6.6100597079785075,None,,,,,,,,,,,142,0,142,0,2034.9344300419907,,,,,,,,,,,,,,,clips/clip_lied_18_nosub_2.mp4,audios/clip_lied_18_nosub_2.mp3,audiovisual,"[5.504990791989258, 7.944997249986045]",3,None,3,6.6100597079785075,None,,,115,A,2026-04-04_15h01.12.932,exp_sofc_final,,2025.2.3,None,2026-04-04 15h01.13.856147 +0200,
,143,0,143,,,,3,None,3.9518796659831423,None,,,,,,,,,,,143,0,143,0,2053.040928375005,,,,,,,,,,,,,,,clips/clip_claude_27_nosub_0.mp4,audios/silence.mp3,visual,[],3,None,3,3.9518796659831423,None,,,115,A,2026-04-04_15h01.12.932,exp_sofc_final,,2025.2.3,None,2026-04-04 15h01.13.856147 +0200,
,144,0,144,,,,2,None,6.1479903330036905,None,,,,,,,,,,,144,0,144,0,2069.8078556669934,,,,,,,,,,,,,,,clips/clip_hund_13_sub_1.mp4,audios/silence.mp3,visual,"[2.5957107080030255, 6.056769415998133]",2,None,2,6.1479903330036905,None,,,115,A,2026-04-04_15h01.12.932,exp_sofc_final,,2025.2.3,None,2026-04-04 15h01.13.856147 +0200,
,145,0,145,,,,2,None,31.97170533298049,None,,,,,,,,,,,145,0,145,0,2088.532848792005,,,,,,,,,,,,,,,clips/clip_hund_34_sub_1.mp4,audios/silence.mp3,visual,"[3.5105059999914374, 6.338540083001135]",2,None,3,31.97170533298049,None,,,115,A,2026-04-04_15h01.12.932,exp_sofc_final,,2025.2.3,None,2026-04-04 15h01.13.856147 +0200,
,146,0,146,,,,None,None,,,,,,,,,,,,,146,0,146,0,2131.7961689580115,,,,,,,,,,,,,,,clips/clip_hund_27_sub_1.mp4,audios/silence.mp3,visual,"[3.6628090409794822, 7.544568290992174]",None,None,,,,,,115,A,2026-04-04_15h01.12.932,exp_sofc_final,,2025.2.3,None,2026-04-04 15h01.13.856147 +0200,
,147,0,147,,,,None,None,,,,,,,,,,,,,147,0,147,0,2142.795451541984,,,,,,,,,,,,,,,clips/clip_holo_01_nosub_1.mp4,audios/clip_holo_01_nosub_1.mp3,audiovisual,[4.294255916000111],None,None,,,,,,115,A,2026-04-04_15h01.12.932,exp_sofc_final,,2025.2.3,None,2026-04-04 15h01.13.856147 +0200,
,148,0,148,,,,None,None,,,,,,,,,,,,,148,0,148,0,2152.778283416992,,,,,,,,,,,,,,,clips/clip_hund_04_sub_0.mp4,audios/silence.mp3,visual,[],None,None,,,,,,115,A,2026-04-04_15h01.12.932,exp_sofc_final,,2025.2.3,None,2026-04-04 15h01.13.856147 +0200,
,149,0,149,,,,None,None,,,,,,,,,,,,,149,0,149,0,2163.0794494999864,,,,,,,,,,,,,,,clips/clip_weißt_11_nosub_0.mp4,audios/clip_weißt_11_nosub_0.mp3,audiovisual,[],None,None,,,,,,115,A,2026-04-04_15h01.12.932,exp_sofc_final,,2025.2.3,None,2026-04-04 15h01.13.856147 +0200,
,150,0,150,,,,None,None,,,,,,,,,,,,,150,0,150,0,2173.8626154999947,,,,,,,,,,,,,,,clips/clip_wurst_05_nosub_0.mp4,audios/clip_wurst_05_nosub_0.mp3,audiovisual,[],None,None,,,,,,115,A,2026-04-04_15h01.12.932,exp_sofc_final,,2025.2.3,None,2026-04-04 15h01.13.856147 +0200,
,151,0,151,,,,None,None,,,,,,,,,,,,,151,0,151,0,2183.338060000009,,,,,,,,,,,,,,,clips/clip_lied_03_sub_1.mp4,audios/clip_lied_03_sub_1.mp3,audiovisual,[5.860284708003746],None,None,,,,,,115,A,2026-04-04_15h01.12.932,exp_sofc_final,,2025.2.3,None,2026-04-04 15h01.13.856147 +0200,
,152,0,152,,,,None,None,,,,,,,,,,,,,152,0,152,0,2194.650155292009,,,,,,,,,,,,,,,clips/clip_hund_16_nosub_1.mp4,audios/clip_hund_16_nosub_1.mp3,audiovisual,[],None,None,,,,,,115,A,2026-04-04_15h01.12.932,exp_sofc_final,,2025.2.3,None,2026-04-04 15h01.13.856147 +0200,
,153,0,153,,,,None,None,,,,,,,,,,,,,153,0,153,0,2206.2699630419957,,,,,,,,,,,,,,,clips/clip_claude_19_nosub_0.mp4,audios/silence.mp3,visual,[],None,None,,,,,,115,A,2026-04-04_15h01.12.932,exp_sofc_final,,2025.2.3,None,2026-04-04 15h01.13.856147 +0200,
,154,0,154,,,,None,None,,,,,,,,,,,,,154,0,154,0,2217.485269833007,,,,,,,,,,,,,,,clips/clip_hund_14_sub_2.mp4,audios/clip_hund_14_sub_2.mp3,audiovisual,[5.865546958026243],None,None,,,,,,115,A,2026-04-04_15h01.12.932,exp_sofc_final,,2025.2.3,None,2026-04-04 15h01.13.856147 +0200,
,155,0,155,,,,None,None,,,,,,,,,,,,,155,0,155,0,2228.159281375003,,,,,,,,,,,,,,,clips/clip_weißt_30_nosub_2.mp4,audios/clip_weißt_30_nosub_2.mp3,audiovisual,[11.989720625017071],None,None,,,,,,115,A,2026-04-04_15h01.12.932,exp_sofc_final,,2025.2.3,None,2026-04-04 15h01.13.856147 +0200,
,156,0,156,,,,4,None,4.346110249985941,None,,,,,,,,,,,156,0,156,0,2240.926547250012,,,,,,,,,,,,,,,clips/clip_lied_06_sub_1.mp4,audios/silence.mp3,visual,[],4,None,4,4.346110249985941,None,,,115,A,2026-04-04_15h01.12.932,exp_sofc_final,,2025.2.3,None,2026-04-04 15h01.13.856147 +0200,
,157,0,157,,,,None,None,,,,,,,,,,,,,157,0,157,0,2258.698569250002,,,,,,,,,,,,,,,clips/clip_claude_09_sub_2.mp4,audios/silence.mp3,visual,"[4.268777416989906, 8.941715332999593]",None,None,,,,,,115,A,2026-04-04_15h01.12.932,exp_sofc_final,,2025.2.3,None,2026-04-04 15h01.13.856147 +0200,
,158,0,158,,,,None,None,,,,,,,,,,,,,158,0,158,0,2269.6940139170038,,,,,,,,,,,,,,,clips/clip_weißt_13_sub_0.mp4,audios/clip_weißt_13_sub_0.mp3,audiovisual,[],None,None,,,,,,115,A,2026-04-04_15h01.12.932,exp_sofc_final,,2025.2.3,None,2026-04-04 15h01.13.856147 +0200,
,159,0,159,,,,4,None,16.910793791990727,None,,,,,,,,,,,159,0,159,0,2281.27481599999,,,,,,,,,,,,,,,clips/clip_hund_07_nosub_1.mp4,audios/silence.mp3,visual,"[0.22123712502070703, 6.567975458019646]",4,None,4,16.910793791990727,None,,,115,A,2026-04-04_15h01.12.932,exp_sofc_final,,2025.2.3,None,2026-04-04 15h01.13.856147 +0200,
,160,0,160,,,,None,None,,,,,,,,,,,,,160,0,160,0,2310.6478163329884,,,,,,,,,,,,,,,clips/clip_lied_14_nosub_0.mp4,audios/clip_lied_14_nosub_0.mp3,audiovisual,[],None,None,,,,,,115,A,2026-04-04_15h01.12.932,exp_sofc_final,,2025.2.3,None,2026-04-04 15h01.13.856147 +0200,
,161,0,161,,,,None,None,,,,,,,,,,,,,161,0,161,0,2321.1045170419966,,,,,,,,,,,,,,,clips/clip_dampf_04_nosub_1.mp4,audios/clip_dampf_04_nosub_1.mp3,audiovisual,[5.06028583299485],None,None,,,,,,115,A,2026-04-04_15h01.12.932,exp_sofc_final,,2025.2.3,None,2026-04-04 15h01.13.856147 +0200,
,162,0,162,,,,None,None,,,,,,,,,,,,,162,0,162,0,2331.494529082993,,,,,,,,,,,,,,,clips/clip_herz_05_nosub_0.mp4,audios/silence.mp3,visual,[5.9654862500028685],None,None,,,,,,115,A,2026-04-04_15h01.12.932,exp_sofc_final,,2025.2.3,None,2026-04-04 15h01.13.856147 +0200,
,163,0,163,,,,None,None,,,,,,,,,,,,,163,0,163,0,2342.6070698330004,,,,,,,,,,,,,,,clips/clip_weißt_02_sub_0.mp4,audios/clip_weißt_02_sub_0.mp3,audiovisual,[],None,None,,,,,,115,A,2026-04-04_15h01.12.932,exp_sofc_final,,2025.2.3,None,2026-04-04 15h01.13.856147 +0200,
,164,0,164,,,,None,None,,,,,,,,,,,,,164,0,164,0,2353.380448916985,,,,,,,,,,,,,,,clips/clip_weißt_08_nosub_0.mp4,audios/silence.mp3,visual,[7.668239249003818],None,None,,,,,,115,A,2026-04-04_15h01.12.932,exp_sofc_final,,2025.2.3,None,2026-04-04 15h01.13.856147 +0200,
,165,0,165,,,,None,None,,,,,,,,,,,,,165,0,165,0,2364.381062625005,,,,,,,,,,,,,,,clips/clip_weißt_01_sub_1.mp4,audios/silence.mp3,visual,[5.983498415997019],None,None,,,,,,115,A,2026-04-04_15h01.12.932,exp_sofc_final,,2025.2.3,None,2026-04-04 15h01.13.856147 +0200,
,166,0,166,,,,None,None,,,,,,,,,,,,,166,0,166,0,2376.161202416988,,,,,,,,,,,,,,,clips/clip_herz_07_sub_2.mp4,audios/silence.mp3,visual,"[5.046181040990632, 10.997047040989855]",None,None,,,,,,115,A,2026-04-04_15h01.12.932,exp_sofc_final,,2025.2.3,None,2026-04-04 15h01.13.856147 +0200,
,167,0,167,,,,None,None,,,,,,,,,,,,,167,0,167,0,2388.9657220829977,,,,,,,,,,,,,,,clips/clip_dampf_01_sub_0.mp4,audios/silence.mp3,visual,[],None,None,,,,,,115,A,2026-04-04_15h01.12.932,exp_sofc_final,,2025.2.3,None,2026-04-04 15h01.13.856147 +0200,
,168,0,168,,,,None,None,,,,,,,,,,,,,168,0,168,0,2399.1677010830026,,,,,,,,,,,,,,,clips/clip_weißt_12_sub_1.mp4,audios/silence.mp3,visual,[9.244789332995424],None,None,,,,,,115,A,2026-04-04_15h01.12.932,exp_sofc_final,,2025.2.3,None,2026-04-04 15h01.13.856147 +0200,
,169,0,169,,,,None,None,,,,,,,,,,,,,169,0,169,0,2411.857163000008,,,,,,,,,,,,,,,clips/clip_dampf_06_sub_2.mp4,audios/clip_dampf_06_sub_2.mp3,audiovisual,[],None,None,,,,,,115,A,2026-04-04_15h01.12.932,exp_sofc_final,,2025.2.3,None,2026-04-04 15h01.13.856147 +0200,
,170,0,170,,,,None,None,,,,,,,,,,,,,170,0,170,0,2421.6440676249913,,,,,,,,,,,,,,,clips/clip_holo_11_sub_2.mp4,audios/clip_holo_11_sub_2.mp3,audiovisual,[9.22172824901645],None,None,,,,,,115,A,2026-04-04_15h01.12.932,exp_sofc_final,,2025.2.3,None,2026-04-04 15h01.13.856147 +0200,
,171,0,171,,,,None,None,,,,,,,,,,,,,171,0,171,0,2432.059723167011,,,,,,,,,,,,,,,clips/clip_wurst_17_nosub_0.mp4,audios/silence.mp3,visual,[],None,None,,,,,,115,A,2026-04-04_15h01.12.932,exp_sofc_final,,2025.2.3,None,2026-04-04 15h01.13.856147 +0200,
,172,0,172,,,,None,None,,,,,,,,,,,,,172,0,172,0,2440.849386042013,,,,,,,,,,,,,,,clips/clip_holo_03_sub_1.mp4,audios/clip_holo_03_sub_1.mp3,audiovisual,"[7.4542398329940625, 9.678309248993173]",None,None,,,,,,115,A,2026-04-04_15h01.12.932,exp_sofc_final,,2025.2.3,None,2026-04-04 15h01.13.856147 +0200,
,173,0,173,,,,None,None,,,,,,,,,,,,,173,0,173,0,2451.156015707995,,,,,,,,,,,,,,,clips/clip_wurst_16_sub_0.mp4,audios/clip_wurst_16_sub_0.mp3,audiovisual,[],None,None,,,,,,115,A,2026-04-04_15h01.12.932,exp_sofc_final,,2025.2.3,None,2026-04-04 15h01.13.856147 +0200,
,174,0,174,,,,None,None,,,,,,,,,,,,,174,0,174,0,2461.9478613329993,,,,,,,,,,,,,,,clips/clip_holo_16_nosub_1.mp4,audios/silence.mp3,visual,[10.271929083013674],None,None,,,,,,115,A,2026-04-04_15h01.12.932,exp_sofc_final,,2025.2.3,None,2026-04-04 15h01.13.856147 +0200,
,175,0,175,,,,None,None,,,,,,,,,,,,,175,0,175,0,2474.796661250002,,,,,,,,,,,,,,,clips/clip_claude_20_nosub_1.mp4,audios/clip_claude_20_nosub_1.mp3,audiovisual,[6.714090374996886],None,None,,,,,,115,A,2026-04-04_15h01.12.932,exp_sofc_final,,2025.2.3,None,2026-04-04 15h01.13.856147 +0200,
,176,0,176,,,,None,None,,,,,,,,,,,,,176,0,176,0,2487.582252249995,,,,,,,,,,,,,,,clips/clip_holo_10_sub_1.mp4,audios/silence.mp3,visual,[6.537018375005573],None,None,,,,,,115,A,2026-04-04_15h01.12.932,exp_sofc_final,,2025.2.3,None,2026-04-04 15h01.13.856147 +0200,
,177,0,177,,,,None,None,,,,,,,,,,,,,177,0,177,0,2498.2982305419864,,,,,,,,,,,,,,,clips/clip_claude_05_sub_2.mp4,audios/silence.mp3,visual,[4.6467682080110535],None,None,,,,,,115,A,2026-04-04_15h01.12.932,exp_sofc_final,,2025.2.3,None,2026-04-04 15h01.13.856147 +0200,
,178,0,178,,,,3,None,4.673314624989871,None,,,,,,,,,,,178,0,178,0,2510.3625054580043,,,,,,,,,,,,,,,clips/clip_lied_12_nosub_0.mp4,audios/silence.mp3,visual,[],3,None,3,4.673314624989871,None,,,115,A,2026-04-04_15h01.12.932,exp_sofc_final,,2025.2.3,None,2026-04-04 15h01.13.856147 +0200,
,179,0,179,,,,None,None,,,,,,,,,,,,,179,0,179,0,2524.8616317920096,,,,,,,,,,,,,,,clips/clip_herz_03_sub_2.mp4,audios/silence.mp3,visual,[4.622623998991912],None,None,,,,,,115,A,2026-04-04_15h01.12.932,exp_sofc_final,,2025.2.3,None,2026-04-04 15h01.13.856147 +0200,
,,,,,,,,,,,,,,,,,,,,,,,,,,,,,,,,,,,,,,,,,,,,,,,,,,,115,A,2026-04-04_15h01.12.932,exp_sofc_final,,2025.2.3,None,2026-04-04 15h01.13.856147 +0200,
