instruction_text;thisN;thisTrialN;thisRepN;prac_attention_resp.keys;prac_attention_resp.rt;prac_attention_resp.duration;exp_atttention_resp.keys;exp_pause_resp.keys;exp_atttention_resp.rt;exp_atttention_resp.duration;exp_pause_resp.rt;exp_pause_resp.duration;instruction_trial.thisRepN;instruction_trial.thisTrialN;instruction_trial.thisN;instruction_trial.thisIndex;practice_trials.thisRepN;practice_trials.thisTrialN;practice_trials.thisN;practice_trials.thisIndex;experiment_trials.thisRepN;experiment_trials.thisTrialN;experiment_trials.thisN;experiment_trials.thisIndex;thisRow.t;notes;piloting;assigned_ls_group;slider_informed_consent.response;Practice_clip_name;Practice_video_used;Practice_audio_used;Practice_modality;Practice_subtitles;Practice_attention_check;Practice_all_cut_rts;practice_trials.prac_attention_resp.keys;Practice_correct_key_required;practice_trials.prac_attention_resp.rt;practice_trials.prac_attention_resp.duration;video_used;audio_used;condition_modality;all_cut_rts;experiment_trials.exp_atttention_resp.keys;experiment_trials.exp_pause_resp.keys;correct_key_required;experiment_trials.exp_atttention_resp.rt;experiment_trials.exp_atttention_resp.duration;experiment_trials.exp_pause_resp.rt;experiment_trials.exp_pause_resp.duration;participant;session;date;expName;expVersion;psychopyVersion;frameRate;expStart
Einverständniserklärung;;;;;;;;;;;;;;;;;;;;;;;;;;;;;;;;;;;;;;;;;;;;;;;;;;;;;;;;;;;
;;;;;;;;;;;;;;;;;;;;;;;;;;;;;;;;;;;;;;;;;;;;;;;;;;;;118;A;2026-04-02_16h30.55.660;exp_sofc_final;;02.01.2026;60.258.496.918.229.300;2026-04-02 16h30.58.072685 +0200
;0;0;0;None;;;;;;;;;;;;;0;0;0;0;;;;;10.511.968.149.989.800;;;;;clip_hund_26_sub_1;clips/clip_hund_26_sub_1.mp4;audios/silence.mp3;visual;sub;False;[];None;;;;;;;;;;;;;;;118;A;2026-04-02_16h30.55.660;exp_sofc_final;;02.01.2026;60.258.496.918.229.300;2026-04-02 16h30.58.072685 +0200
;1;0;1;None;;;;;;;;;;;;;1;0;1;0;;;;;11.483.899.369.975.500;;;;;clip_weißt_21_nosub_0;clips/clip_weißt_21_nosub_0.mp4;audios/silence.mp3;visual;nosub;False;[];None;;;;;;;;;;;;;;;118;A;2026-04-02_16h30.55.660;exp_sofc_final;;02.01.2026;60.258.496.918.229.300;2026-04-02 16h30.58.072685 +0200
;2;0;2;None;;;;;;;;;;;;;2;0;2;0;;;;;12.574.854.469.997.800;;;;;clip_hund_31_sub_0;clips/clip_hund_31_sub_0.mp4;audios/silence.mp3;visual;sub;False;[];None;;;;;;;;;;;;;;;118;A;2026-04-02_16h30.55.660;exp_sofc_final;;02.01.2026;60.258.496.918.229.300;2026-04-02 16h30.58.072685 +0200
;3;0;3;None;;;;;;;;;;;;;3;0;3;0;;;;;13.508.660.059.981.000;;;;;clip_hund_02_sub_1;clips/clip_hund_02_sub_1.mp4;audios/clip_hund_02_sub_1.mp3;audiovisual;sub;False;[0.5029984000138938, 9.378029100131243];None;;;;;;;;;;;;;;;118;A;2026-04-02_16h30.55.660;exp_sofc_final;;02.01.2026;60.258.496.918.229.300;2026-04-02 16h30.58.072685 +0200
;4;0;4;None;;;;;;;;;;;;;4;0;4;0;;;;;14.585.935.679.962.800;;;;;clip_hund_25_sub_1;clips/clip_hund_25_sub_1.mp4;audios/silence.mp3;visual;sub;False;[6.667105000000447];None;;;;;;;;;;;;;;;118;A;2026-04-02_16h30.55.660;exp_sofc_final;;02.01.2026;60.258.496.918.229.300;2026-04-02 16h30.58.072685 +0200
;5;0;5;None;;;;;;;;;;;;;5;0;5;0;;;;;15.511.430.529.970.600;;;;;clip_hund_28_nosub_0;clips/clip_hund_28_nosub_0.mp4;audios/clip_hund_28_nosub_0.mp3;audiovisual;nosub;False;[];None;;;;;;;;;;;;;;;118;A;2026-04-02_16h30.55.660;exp_sofc_final;;02.01.2026;60.258.496.918.229.300;2026-04-02 16h30.58.072685 +0200
;6;0;6;None;;;;;;;;;;;;;6;0;6;0;;;;;16.588.839.019.974.600;;;;;clip_weißt_09_sub_1;clips/clip_weißt_09_sub_1.mp4;audios/silence.mp3;visual;sub;False;[0.2673690002411604, 6.326063100248575];None;;;;;;;;;;;;;;;118;A;2026-04-02_16h30.55.660;exp_sofc_final;;02.01.2026;60.258.496.918.229.300;2026-04-02 16h30.58.072685 +0200
;7;0;7;None;;;;;;;;;;;;;7;0;7;0;;;;;17.571.859.099.995.300;;;;;clip_weißt_18_nosub_1;clips/clip_weißt_18_nosub_1.mp4;audios/silence.mp3;visual;nosub;False;[6.693073499947786];None;;;;;;;;;;;;;;;118;A;2026-04-02_16h30.55.660;exp_sofc_final;;02.01.2026;60.258.496.918.229.300;2026-04-02 16h30.58.072685 +0200
;8;0;8;4;8.870.538.600.254.800;None;;;;;;;;;;;8;0;8;0;;;;;1.885.788.407.996.290;;;;;clip_weißt_10_nosub_1;clips/clip_weißt_10_nosub_1.mp4;audios/clip_weißt_10_nosub_1.mp3;audiovisual;nosub;True;[0.44517969992011786, 5.350442099850625];4;4;8.870.538.600.254.800;None;;;;;;;;;;;;118;A;2026-04-02_16h30.55.660;exp_sofc_final;;02.01.2026;60.258.496.918.229.300;2026-04-02 16h30.58.072685 +0200
;9;0;9;2;10.791.523.800.231.500;None;;;;;;;;;;;9;0;9;0;;;;;2.095.355.155.998.840;;;;;clip_hund_06_nosub_0;clips/clip_hund_06_nosub_0.mp4;audios/clip_hund_06_nosub_0.mp3;audiovisual;nosub;True;[];2;2;10.791.523.800.231.500;None;;;;;;;;;;;;118;A;2026-04-02_16h30.55.660;exp_sofc_final;;02.01.2026;60.258.496.918.229.300;2026-04-02 16h30.58.072685 +0200
;10;0;10;4;5.281.312.299.892.300;None;;;;;;;;;;;10;0;10;0;;;;;23.213.990.719.988.900;;;;;clip_weißt_05_sub_0;clips/clip_weißt_05_sub_0.mp4;audios/clip_weißt_05_sub_0.mp3;audiovisual;sub;True;[];4;4;5.281.312.299.892.300;None;;;;;;;;;;;;118;A;2026-04-02_16h30.55.660;exp_sofc_final;;02.01.2026;60.258.496.918.229.300;2026-04-02 16h30.58.072685 +0200
;11;0;11;1;59.093.181.998.468.900;None;;;;;;;;;;;11;0;11;0;;;;;248.069.649.099.838;;;;;clip_wurst_09_sub_1;clips/clip_wurst_09_sub_1.mp4;audios/clip_wurst_09_sub_1.mp3;audiovisual;sub;True;[];1;4;59.093.181.998.468.900;None;;;;;;;;;;;;118;A;2026-04-02_16h30.55.660;exp_sofc_final;;02.01.2026;60.258.496.918.229.300;2026-04-02 16h30.58.072685 +0200
;;;;;;;;;;;;;;;;;;;;;;;;;;;;;;;;;;;;;;;;;;;;;;;;;;;;118;A;2026-04-02_16h30.55.660;exp_sofc_final;;02.01.2026;60.258.496.918.229.300;2026-04-02 16h30.58.072685 +0200
;0;0;0;;;;None;None;;;;;;;;;;;;;0;0;0;0;33.058.425.039.984.200;;;;;;;;;;;;;;;;clips/clip_lied_09_sub_1.mp4;audios/clip_lied_09_sub_1.mp3;audiovisual;[];None;None;;;;;;118;A;2026-04-02_16h30.55.660;exp_sofc_final;;02.01.2026;60.258.496.918.229.300;2026-04-02 16h30.58.072685 +0200
;1;0;1;;;;None;None;;;;;;;;;;;;;1;0;1;0;34.188.239.729.963.200;;;;;;;;;;;;;;;;clips/clip_holo_03_nosub_1.mp4;audios/clip_holo_03_nosub_1.mp3;audiovisual;[7.387201800011098];None;None;;;;;;118;A;2026-04-02_16h30.55.660;exp_sofc_final;;02.01.2026;60.258.496.918.229.300;2026-04-02 16h30.58.072685 +0200
;2;0;2;;;;None;None;;;;;;;;;;;;;2;0;2;0;35.224.248.009.966.600;;;;;;;;;;;;;;;;clips/clip_lied_05_sub_0.mp4;audios/clip_lied_05_sub_0.mp3;audiovisual;[];None;None;;;;;;118;A;2026-04-02_16h30.55.660;exp_sofc_final;;02.01.2026;60.258.496.918.229.300;2026-04-02 16h30.58.072685 +0200
;3;0;3;;;;None;None;;;;;;;;;;;;;3;0;3;0;3.624.728.872.999.540;;;;;;;;;;;;;;;;clips/clip_claude_03_sub_1.mp4;audios/silence.mp3;visual;[5.356264399830252];None;None;;;;;;118;A;2026-04-02_16h30.55.660;exp_sofc_final;;02.01.2026;60.258.496.918.229.300;2026-04-02 16h30.58.072685 +0200
;4;0;4;;;;3;None;4.590.237.400.028.850;None;;;;;;;;;;;4;0;4;0;3.748.434.833.995.990;;;;;;;;;;;;;;;;clips/clip_weißt_12_nosub_1.mp4;audios/silence.mp3;visual;[8.94579330040142];3;None;3;4.590.237.400.028.850;None;;;118;A;2026-04-02_16h30.55.660;exp_sofc_final;;02.01.2026;60.258.496.918.229.300;2026-04-02 16h30.58.072685 +0200
;5;0;5;;;;None;None;;;;;;;;;;;;;5;0;5;0;39.234.373.639.989.600;;;;;;;;;;;;;;;;clips/clip_herz_12_nosub_0.mp4;audios/clip_herz_12_nosub_0.mp3;audiovisual;[5.789154400117695];None;None;;;;;;118;A;2026-04-02_16h30.55.660;exp_sofc_final;;02.01.2026;60.258.496.918.229.300;2026-04-02 16h30.58.072685 +0200
;6;0;6;;;;None;None;;;;;;;;;;;;;6;0;6;0;402.222.280.099.988;;;;;;;;;;;;;;;;clips/clip_lied_15_nosub_2.mp4;audios/silence.mp3;visual;[3.197228299919516];None;None;;;;;;118;A;2026-04-02_16h30.55.660;exp_sofc_final;;02.01.2026;60.258.496.918.229.300;2026-04-02 16h30.58.072685 +0200
;7;0;7;;;;3;None;4.770.803.099.963.810;None;;;;;;;;;;;7;0;7;0;4.105.222.826.995.880;;;;;;;;;;;;;;;;clips/clip_holo_16_sub_1.mp4;audios/silence.mp3;visual;[10.243407799862325];3;None;4;4.770.803.099.963.810;None;;;118;A;2026-04-02_16h30.55.660;exp_sofc_final;;02.01.2026;60.258.496.918.229.300;2026-04-02 16h30.58.072685 +0200
;8;0;8;;;;None;None;;;;;;;;;;;;;8;0;8;0;4.280.975.241.996.340;;;;;;;;;;;;;;;;clips/clip_wurst_04_sub_2.mp4;audios/silence.mp3;visual;[4.056430199649185, 7.233846299815923];None;None;;;;;;118;A;2026-04-02_16h30.55.660;exp_sofc_final;;02.01.2026;60.258.496.918.229.300;2026-04-02 16h30.58.072685 +0200
;9;0;9;;;;None;None;;;;;;;;;;;;;9;0;9;0;4.405.312.264.999.370;;;;;;;;;;;;;;;;clips/clip_dampf_04_sub_1.mp4;audios/clip_dampf_04_sub_1.mp3;audiovisual;[4.963226600084454];None;None;;;;;;118;A;2026-04-02_16h30.55.660;exp_sofc_final;;02.01.2026;60.258.496.918.229.300;2026-04-02 16h30.58.072685 +0200
;10;0;10;;;;None;None;;;;;;;;;;;;;10;0;10;0;4.510.298.742.996.520;;;;;;;;;;;;;;;;clips/clip_wurst_01_nosub_0.mp4;audios/silence.mp3;visual;[];None;None;;;;;;118;A;2026-04-02_16h30.55.660;exp_sofc_final;;02.01.2026;60.258.496.918.229.300;2026-04-02 16h30.58.072685 +0200
;11;0;11;;;;None;None;;;;;;;;;;;;;11;0;11;0;46.215.771.029.982.700;;;;;;;;;;;;;;;;clips/clip_weißt_26_sub_1.mp4;audios/clip_weißt_26_sub_1.mp3;audiovisual;[7.2949810000136495];None;None;;;;;;118;A;2026-04-02_16h30.55.660;exp_sofc_final;;02.01.2026;60.258.496.918.229.300;2026-04-02 16h30.58.072685 +0200
;12;0;12;;;;None;None;;;;;;;;;;;;;12;0;12;0;47.312.361.539.993.400;;;;;;;;;;;;;;;;clips/clip_herz_10_sub_0.mp4;audios/clip_herz_10_sub_0.mp3;audiovisual;[];None;None;;;;;;118;A;2026-04-02_16h30.55.660;exp_sofc_final;;02.01.2026;60.258.496.918.229.300;2026-04-02 16h30.58.072685 +0200
;13;0;13;;;;None;None;;;;;;;;;;;;;13;0;13;0;48.393.435.060.000.000;;;;;;;;;;;;;;;;clips/clip_holo_17_sub_0.mp4;audios/clip_holo_17_sub_0.mp3;audiovisual;[0.3452353999018669];None;None;;;;;;118;A;2026-04-02_16h30.55.660;exp_sofc_final;;02.01.2026;60.258.496.918.229.300;2026-04-02 16h30.58.072685 +0200
;14;0;14;;;;None;None;;;;;;;;;;;;;14;0;14;0;49.473.972.209.962.000;;;;;;;;;;;;;;;;clips/clip_hund_20_sub_0.mp4;audios/clip_hund_20_sub_0.mp3;audiovisual;[];None;None;;;;;;118;A;2026-04-02_16h30.55.660;exp_sofc_final;;02.01.2026;60.258.496.918.229.300;2026-04-02 16h30.58.072685 +0200
;15;0;15;;;;None;None;;;;;;;;;;;;;15;0;15;0;5.070.812.881.998.710;;;;;;;;;;;;;;;;clips/clip_hund_01_sub_0.mp4;audios/silence.mp3;visual;[0.18254399998113513];None;None;;;;;;118;A;2026-04-02_16h30.55.660;exp_sofc_final;;02.01.2026;60.258.496.918.229.300;2026-04-02 16h30.58.072685 +0200
;16;0;16;;;;None;None;;;;;;;;;;;;;16;0;16;0;5.186.999.977.999.360;;;;;;;;;;;;;;;;clips/clip_claude_26_nosub_0.mp4;audios/clip_claude_26_nosub_0.mp3;audiovisual;[4.362123999744654];None;None;;;;;;118;A;2026-04-02_16h30.55.660;exp_sofc_final;;02.01.2026;60.258.496.918.229.300;2026-04-02 16h30.58.072685 +0200
;17;0;17;;;;None;None;;;;;;;;;;;;;17;0;17;0;5.304.488.861.998.540;;;;;;;;;;;;;;;;clips/clip_wurst_19_nosub_0.mp4;audios/silence.mp3;visual;[];None;None;;;;;;118;A;2026-04-02_16h30.55.660;exp_sofc_final;;02.01.2026;60.258.496.918.229.300;2026-04-02 16h30.58.072685 +0200
;18;0;18;;;;None;None;;;;;;;;;;;;;18;0;18;0;5.423.373.698.997.310;;;;;;;;;;;;;;;;clips/clip_herz_01_sub_1.mp4;audios/silence.mp3;visual;[6.312360300216824];None;None;;;;;;118;A;2026-04-02_16h30.55.660;exp_sofc_final;;02.01.2026;60.258.496.918.229.300;2026-04-02 16h30.58.072685 +0200
;19;0;19;;;;None;None;;;;;;;;;;;;;19;0;19;0;5.538.130.475.999.780;;;;;;;;;;;;;;;;clips/clip_holo_20_sub_1.mp4;audios/silence.mp3;visual;[1.6124249999411404];None;None;;;;;;118;A;2026-04-02_16h30.55.660;exp_sofc_final;;02.01.2026;60.258.496.918.229.300;2026-04-02 16h30.58.072685 +0200
;20;0;20;;;;None;None;;;;;;;;;;;;;20;0;20;0;5.642.321.054.995.990;;;;;;;;;;;;;;;;clips/clip_holo_13_sub_1.mp4;audios/clip_holo_13_sub_1.mp3;audiovisual;[4.205029900185764];None;None;;;;;;118;A;2026-04-02_16h30.55.660;exp_sofc_final;;02.01.2026;60.258.496.918.229.300;2026-04-02 16h30.58.072685 +0200
;21;0;21;;;;None;None;;;;;;;;;;;;;21;0;21;0;5.769.574.918.998.400;;;;;;;;;;;;;;;;clips/clip_claude_07_sub_0.mp4;audios/silence.mp3;visual;[];None;None;;;;;;118;A;2026-04-02_16h30.55.660;exp_sofc_final;;02.01.2026;60.258.496.918.229.300;2026-04-02 16h30.58.072685 +0200
;22;0;22;;;;None;None;;;;;;;;;;;;;22;0;22;0;5.880.449.498.998.930;;;;;;;;;;;;;;;;clips/clip_wurst_28_nosub_1.mp4;audios/clip_wurst_28_nosub_1.mp3;audiovisual;[];None;None;;;;;;118;A;2026-04-02_16h30.55.660;exp_sofc_final;;02.01.2026;60.258.496.918.229.300;2026-04-02 16h30.58.072685 +0200
;23;0;23;;;;None;None;;;;;;;;;;;;;23;0;23;0;5.990.899.532.996.110;;;;;;;;;;;;;;;;clips/clip_holo_06_nosub_2.mp4;audios/silence.mp3;visual;[5.148117399774492, 9.228468099609017, 9.421423899941146];None;None;;;;;;118;A;2026-04-02_16h30.55.660;exp_sofc_final;;02.01.2026;60.258.496.918.229.300;2026-04-02 16h30.58.072685 +0200
;24;0;24;;;;None;None;;;;;;;;;;;;;24;0;24;0;6.097.260.554.996.310;;;;;;;;;;;;;;;;clips/clip_hund_12_sub_1.mp4;audios/clip_hund_12_sub_1.mp3;audiovisual;[9.91460739960894];None;None;;;;;;118;A;2026-04-02_16h30.55.660;exp_sofc_final;;02.01.2026;60.258.496.918.229.300;2026-04-02 16h30.58.072685 +0200
;25;0;25;;;;None;None;;;;;;;;;;;;;25;0;25;0;6.217.832.112.996.830;;;;;;;;;;;;;;;;clips/clip_claude_27_sub_0.mp4;audios/silence.mp3;visual;[];None;None;;;;;;118;A;2026-04-02_16h30.55.660;exp_sofc_final;;02.01.2026;60.258.496.918.229.300;2026-04-02 16h30.58.072685 +0200
;26;0;26;;;;3;None;4.981.360.100.209.710;None;;;;;;;;;;;26;0;26;0;6.346.987.305.996.000;;;;;;;;;;;;;;;;clips/clip_weißt_03_sub_0.mp4;audios/silence.mp3;visual;[];3;None;3;4.981.360.100.209.710;None;;;118;A;2026-04-02_16h30.55.660;exp_sofc_final;;02.01.2026;60.258.496.918.229.300;2026-04-02 16h30.58.072685 +0200
;27;0;27;;;;None;None;;;;;;;;;;;;;27;0;27;0;6.527.227.318.999.350;;;;;;;;;;;;;;;;clips/clip_weißt_20_sub_1.mp4;audios/clip_weißt_20_sub_1.mp3;audiovisual;[8.177734999917448];None;None;;;;;;118;A;2026-04-02_16h30.55.660;exp_sofc_final;;02.01.2026;60.258.496.918.229.300;2026-04-02 16h30.58.072685 +0200
;28;0;28;;;;4;None;4.779.878.200.031.810;None;;;;;;;;;;;28;0;28;0;6.633.369.392.999.440;;;;;;;;;;;;;;;;clips/clip_wurst_30_sub_1.mp4;audios/clip_wurst_30_sub_1.mp3;audiovisual;[];4;None;4;4.779.878.200.031.810;None;;;118;A;2026-04-02_16h30.55.660;exp_sofc_final;;02.01.2026;60.258.496.918.229.300;2026-04-02 16h30.58.072685 +0200
;29;0;29;;;;None;None;;;;;;;;;;;;;29;0;29;0;6.789.922.064.999.110;;;;;;;;;;;;;;;;clips/clip_claude_18_nosub_0.mp4;audios/clip_claude_18_nosub_0.mp3;audiovisual;[];None;None;;;;;;118;A;2026-04-02_16h30.55.660;exp_sofc_final;;02.01.2026;60.258.496.918.229.300;2026-04-02 16h30.58.072685 +0200
;30;0;30;;;;None;None;;;;;;;;;;;;;30;0;30;0;6.888.455.876.996.740;;;;;;;;;;;;;;;;clips/clip_lied_06_nosub_1.mp4;audios/silence.mp3;visual;[];None;None;;;;;;118;A;2026-04-02_16h30.55.660;exp_sofc_final;;02.01.2026;60.258.496.918.229.300;2026-04-02 16h30.58.072685 +0200
;31;0;31;;;;1;None;7.298.587.199.766.180;None;;;;;;;;;;;31;0;31;0;7.023.991.723.996.580;;;;;;;;;;;;;;;;clips/clip_wurst_26_sub_1.mp4;audios/clip_wurst_26_sub_1.mp3;audiovisual;[10.194323599804193];1;None;1;7.298.587.199.766.180;None;;;118;A;2026-04-02_16h30.55.660;exp_sofc_final;;02.01.2026;60.258.496.918.229.300;2026-04-02 16h30.58.072685 +0200
;32;0;32;;;;None;None;;;;;;;;;;;;;32;0;32;0;7.226.324.609.997.680;;;;;;;;;;;;;;;;clips/clip_hund_23_sub_1.mp4;audios/silence.mp3;visual;[];None;None;;;;;;118;A;2026-04-02_16h30.55.660;exp_sofc_final;;02.01.2026;60.258.496.918.229.300;2026-04-02 16h30.58.072685 +0200
;33;0;33;;;;None;None;;;;;;;;;;;;;33;0;33;0;7.343.598.344.996.570;;;;;;;;;;;;;;;;clips/clip_lied_12_sub_0.mp4;audios/silence.mp3;visual;[];None;None;;;;;;118;A;2026-04-02_16h30.55.660;exp_sofc_final;;02.01.2026;60.258.496.918.229.300;2026-04-02 16h30.58.072685 +0200
;34;0;34;;;;4;None;4.612.083.800.137.040;None;;;;;;;;;;;34;0;34;0;7.443.042.707.997.370;;;;;;;;;;;;;;;;clips/clip_weißt_30_sub_2.mp4;audios/clip_weißt_30_sub_2.mp3;audiovisual;[3.177176999859512, 12.139600099995732];4;None;4;4.612.083.800.137.040;None;;;118;A;2026-04-02_16h30.55.660;exp_sofc_final;;02.01.2026;60.258.496.918.229.300;2026-04-02 16h30.58.072685 +0200
;35;0;35;;;;None;None;;;;;;;;;;;;;35;0;35;0;7.617.831.305;;;;;;;;;;;;;;;;clips/clip_wurst_24_nosub_1.mp4;audios/clip_wurst_24_nosub_1.mp3;audiovisual;[];None;None;;;;;;118;A;2026-04-02_16h30.55.660;exp_sofc_final;;02.01.2026;60.258.496.918.229.300;2026-04-02 16h30.58.072685 +0200
;36;0;36;;;;None;None;;;;;;;;;;;;;36;0;36;0;7.738.861.465.998.920;;;;;;;;;;;;;;;;clips/clip_wurst_11_nosub_0.mp4;audios/silence.mp3;visual;[];None;None;;;;;;118;A;2026-04-02_16h30.55.660;exp_sofc_final;;02.01.2026;60.258.496.918.229.300;2026-04-02 16h30.58.072685 +0200
;37;0;37;;;;None;None;;;;;;;;;;;;;37;0;37;0;7.867.603.070.000.180;;;;;;;;;;;;;;;;clips/clip_lied_17_sub_2.mp4;audios/silence.mp3;visual;[2.6036748997867107, 7.695018500089645];None;None;;;;;;118;A;2026-04-02_16h30.55.660;exp_sofc_final;;02.01.2026;60.258.496.918.229.300;2026-04-02 16h30.58.072685 +0200
;38;0;38;;;;None;None;;;;;;;;;;;;;38;0;38;0;7.976.811.940.995.970;;;;;;;;;;;;;;;;clips/clip_dampf_06_nosub_2.mp4;audios/clip_dampf_06_nosub_2.mp3;audiovisual;[];None;None;;;;;;118;A;2026-04-02_16h30.55.660;exp_sofc_final;;02.01.2026;60.258.496.918.229.300;2026-04-02 16h30.58.072685 +0200
;39;0;39;;;;None;None;;;;;;;;;;;;;39;0;39;0;8.076.048.944.997.600;;;;;;;;;;;;;;;;clips/clip_hund_21_nosub_1.mp4;audios/silence.mp3;visual;[6.313387900125235];None;None;;;;;;118;A;2026-04-02_16h30.55.660;exp_sofc_final;;02.01.2026;60.258.496.918.229.300;2026-04-02 16h30.58.072685 +0200
;40;0;40;;;;3;None;7.550.975.099.671.630;None;;;;;;;;;;;40;0;40;0;818.413.750.199.601;;;;;;;;;;;;;;;;clips/clip_claude_23_sub_0.mp4;audios/silence.mp3;visual;[];3;None;2;7.550.975.099.671.630;None;;;118;A;2026-04-02_16h30.55.660;exp_sofc_final;;02.01.2026;60.258.496.918.229.300;2026-04-02 16h30.58.072685 +0200
;41;0;41;;;;None;None;;;;;;;;;;;;;41;0;41;0;8.391.504.110.996.610;;;;;;;;;;;;;;;;clips/clip_holo_05_sub_2.mp4;audios/clip_holo_05_sub_2.mp3;audiovisual;[7.378389599733055];None;None;;;;;;118;A;2026-04-02_16h30.55.660;exp_sofc_final;;02.01.2026;60.258.496.918.229.300;2026-04-02 16h30.58.072685 +0200
;42;0;42;;;;1;None;10.049.569.100.141.500;None;;;;;;;;;;;42;0;42;0;8.490.717.144.999.650;;;;;;;;;;;;;;;;clips/clip_wurst_23_nosub_2.mp4;audios/silence.mp3;visual;[3.5440427996218204, 7.989343599881977];1;None;3;10.049.569.100.141.500;None;;;118;A;2026-04-02_16h30.55.660;exp_sofc_final;;02.01.2026;60.258.496.918.229.300;2026-04-02 16h30.58.072685 +0200
;43;0;43;;;;None;None;;;;;;;;;;;;;43;0;43;0;8.705.691.996.999.080;;;;;;;;;;;;;;;;clips/clip_wurst_12_nosub_0.mp4;audios/clip_wurst_12_nosub_0.mp3;audiovisual;[];None;None;;;;;;118;A;2026-04-02_16h30.55.660;exp_sofc_final;;02.01.2026;60.258.496.918.229.300;2026-04-02 16h30.58.072685 +0200
;44;0;44;;;;None;None;;;;;;;;;;;;;44;0;44;0;8.800.236.517.996.520;;;;;;;;;;;;;;;;clips/clip_holo_07_nosub_0.mp4;audios/clip_holo_07_nosub_0.mp3;audiovisual;[0.30202870024368167];None;None;;;;;;118;A;2026-04-02_16h30.55.660;exp_sofc_final;;02.01.2026;60.258.496.918.229.300;2026-04-02 16h30.58.072685 +0200
;45;0;45;;;;None;None;;;;;;;;;;;;;45;0;45;0;8.902.929.675.998.160;;;;;;;;;;;;;;;;clips/clip_claude_11_sub_0.mp4;audios/silence.mp3;visual;[];None;None;;;;;;118;A;2026-04-02_16h30.55.660;exp_sofc_final;;02.01.2026;60.258.496.918.229.300;2026-04-02 16h30.58.072685 +0200
;46;0;46;;;;4;None;7.015.667.099.971.320;None;;;;;;;;;;;46;0;46;0;9.012.182.547.999.540;;;;;;;;;;;;;;;;clips/clip_lied_01_sub_1.mp4;audios/clip_lied_01_sub_1.mp3;audiovisual;[4.9923723000101745];4;None;1;7.015.667.099.971.320;None;;;118;A;2026-04-02_16h30.55.660;exp_sofc_final;;02.01.2026;60.258.496.918.229.300;2026-04-02 16h30.58.072685 +0200
;47;0;47;;;;None;None;;;;;;;;;;;;;47;0;47;0;9.193.790.137.995.960;;;;;;;;;;;;;;;;clips/clip_weißt_02_nosub_0.mp4;audios/clip_weißt_02_nosub_0.mp3;audiovisual;[];None;None;;;;;;118;A;2026-04-02_16h30.55.660;exp_sofc_final;;02.01.2026;60.258.496.918.229.300;2026-04-02 16h30.58.072685 +0200
;48;0;48;;;;None;None;;;;;;;;;;;;;48;0;48;0;9.301.645.690.998.990;;;;;;;;;;;;;;;;clips/clip_wurst_13_sub_0.mp4;audios/silence.mp3;visual;[];None;None;;;;;;118;A;2026-04-02_16h30.55.660;exp_sofc_final;;02.01.2026;60.258.496.918.229.300;2026-04-02 16h30.58.072685 +0200
;49;0;49;;;;None;None;;;;;;;;;;;;;49;0;49;0;9.406.318.329.996.420;;;;;;;;;;;;;;;;clips/clip_wurst_22_sub_0.mp4;audios/clip_wurst_22_sub_0.mp3;audiovisual;[];None;None;;;;;;118;A;2026-04-02_16h30.55.660;exp_sofc_final;;02.01.2026;60.258.496.918.229.300;2026-04-02 16h30.58.072685 +0200
;50;0;50;;;;None;None;;;;;;;;;;;;;50;0;50;0;9.532.110.956.995.740;;;;;;;;;;;;;;;;clips/clip_wurst_18_sub_0.mp4;audios/clip_wurst_18_sub_0.mp3;audiovisual;[];None;None;;;;;;118;A;2026-04-02_16h30.55.660;exp_sofc_final;;02.01.2026;60.258.496.918.229.300;2026-04-02 16h30.58.072685 +0200
;51;0;51;;;;None;None;;;;;;;;;;;;;51;0;51;0;9.641.262.701.996.600;;;;;;;;;;;;;;;;clips/clip_claude_06_nosub_1.mp4;audios/clip_claude_06_nosub_1.mp3;audiovisual;[4.055697000119835];None;None;;;;;;118;A;2026-04-02_16h30.55.660;exp_sofc_final;;02.01.2026;60.258.496.918.229.300;2026-04-02 16h30.58.072685 +0200
;52;0;52;;;;None;None;;;;;;;;;;;;;52;0;52;0;977.535.465.199.966;;;;;;;;;;;;;;;;clips/clip_lied_14_sub_0.mp4;audios/clip_lied_14_sub_0.mp3;audiovisual;[];None;None;;;;;;118;A;2026-04-02_16h30.55.660;exp_sofc_final;;02.01.2026;60.258.496.918.229.300;2026-04-02 16h30.58.072685 +0200
;53;0;53;;;;None;None;;;;;;;;;;;;;53;0;53;0;9.881.695.504.998.780;;;;;;;;;;;;;;;;clips/clip_claude_21_nosub_1.mp4;audios/silence.mp3;visual;[9.807856199797243];None;None;;;;;;118;A;2026-04-02_16h30.55.660;exp_sofc_final;;02.01.2026;60.258.496.918.229.300;2026-04-02 16h30.58.072685 +0200
;54;0;54;;;;None;None;;;;;;;;;;;;;54;0;54;0;10.012.851.761.998.600;;;;;;;;;;;;;;;;clips/clip_lied_22_sub_1.mp4;audios/clip_lied_22_sub_1.mp3;audiovisual;[6.079736799933016];None;None;;;;;;118;A;2026-04-02_16h30.55.660;exp_sofc_final;;02.01.2026;60.258.496.918.229.300;2026-04-02 16h30.58.072685 +0200
;55;0;55;;;;None;None;;;;;;;;;;;;;55;0;55;0;1.012.742.209.199.810;;;;;;;;;;;;;;;;clips/clip_holo_09_sub_2.mp4;audios/clip_holo_09_sub_2.mp3;audiovisual;[];None;None;;;;;;118;A;2026-04-02_16h30.55.660;exp_sofc_final;;02.01.2026;60.258.496.918.229.300;2026-04-02 16h30.58.072685 +0200
;56;0;56;;;;None;None;;;;;;;;;;;;;56;0;56;0;10.251.011.392.995.700;;;;;;;;;;;;;;;;clips/clip_wurst_05_sub_0.mp4;audios/clip_wurst_05_sub_0.mp3;audiovisual;[];None;None;;;;;;118;A;2026-04-02_16h30.55.660;exp_sofc_final;;02.01.2026;60.258.496.918.229.300;2026-04-02 16h30.58.072685 +0200
;57;0;57;;;;None;None;;;;;;;;;;;;;57;0;57;0;10.346.225.977.996.300;;;;;;;;;;;;;;;;clips/clip_claude_25_nosub_0.mp4;audios/silence.mp3;visual;[];None;None;;;;;;118;A;2026-04-02_16h30.55.660;exp_sofc_final;;02.01.2026;60.258.496.918.229.300;2026-04-02 16h30.58.072685 +0200
;58;0;58;;;;3;None;4.308.774.900.157.000;None;;;;;;;;;;;58;0;58;0;10.456.887.022.997.200;;;;;;;;;;;;;;;;clips/clip_holo_04_sub_2.mp4;audios/silence.mp3;visual;[3.1759387999773026, 7.004339300096035];3;None;3;4.308.774.900.157.000;None;;;118;A;2026-04-02_16h30.55.660;exp_sofc_final;;02.01.2026;60.258.496.918.229.300;2026-04-02 16h30.58.072685 +0200
;59;0;59;;;;None;space;;;17.175.220.100.209.100;None;;;;;;;;;59;0;59;0;1.063.299.676.799.680;;;;;;;;;;;;;;;;clips/clip_claude_22_nosub_2.mp4;audios/clip_claude_22_nosub_2.mp3;audiovisual;[8.100352500099689];None;space;;;;17.175.220.100.209.100;None;118;A;2026-04-02_16h30.55.660;exp_sofc_final;;02.01.2026;60.258.496.918.229.300;2026-04-02 16h30.58.072685 +0200
;60;0;60;;;;None;None;;;;;;;;;;;;;60;0;60;0;10.918.621.151.996.700;;;;;;;;;;;;;;;;clips/clip_claude_17_nosub_1.mp4;audios/silence.mp3;visual;[10.345732999965549];None;None;;;;;;118;A;2026-04-02_16h30.55.660;exp_sofc_final;;02.01.2026;60.258.496.918.229.300;2026-04-02 16h30.58.072685 +0200
;61;0;61;;;;4;None;34.751.018.001.697.900;None;;;;;;;;;;;61;0;61;0;11.041.818.589.000.000;;;;;;;;;;;;;;;;clips/clip_lied_02_nosub_2.mp4;audios/silence.mp3;visual;[3.9356594001874328, 9.450690600089729];4;None;4;34.751.018.001.697.900;None;;;118;A;2026-04-02_16h30.55.660;exp_sofc_final;;02.01.2026;60.258.496.918.229.300;2026-04-02 16h30.58.072685 +0200
;62;0;62;;;;None;None;;;;;;;;;;;;;62;0;62;0;11.196.935.580.996.700;;;;;;;;;;;;;;;;clips/clip_hund_16_sub_1.mp4;audios/clip_hund_16_sub_1.mp3;audiovisual;[];None;None;;;;;;118;A;2026-04-02_16h30.55.660;exp_sofc_final;;02.01.2026;60.258.496.918.229.300;2026-04-02 16h30.58.072685 +0200
;63;0;63;;;;None;None;;;;;;;;;;;;;63;0;63;0;1.131.359.337.199.940;;;;;;;;;;;;;;;;clips/clip_holo_24_sub_2.mp4;audios/silence.mp3;visual;[7.039777799975127, 9.64942489983514];None;None;;;;;;118;A;2026-04-02_16h30.55.660;exp_sofc_final;;02.01.2026;60.258.496.918.229.300;2026-04-02 16h30.58.072685 +0200
;64;0;64;;;;None;None;;;;;;;;;;;;;64;0;64;0;11.420.560.314.999.800;;;;;;;;;;;;;;;;clips/clip_lied_18_sub_2.mp4;audios/clip_lied_18_sub_2.mp3;audiovisual;[5.771625100169331, 7.622105400077999];None;None;;;;;;118;A;2026-04-02_16h30.55.660;exp_sofc_final;;02.01.2026;60.258.496.918.229.300;2026-04-02 16h30.58.072685 +0200
;65;0;65;;;;None;None;;;;;;;;;;;;;65;0;65;0;11.536.332.882.996.600;;;;;;;;;;;;;;;;clips/clip_herz_06_sub_2.mp4;audios/clip_herz_06_sub_2.mp3;audiovisual;[4.71250359993428, 8.097744999919087];None;None;;;;;;118;A;2026-04-02_16h30.55.660;exp_sofc_final;;02.01.2026;60.258.496.918.229.300;2026-04-02 16h30.58.072685 +0200
;66;0;66;;;;3;None;4.647.701.700.218.020;None;;;;;;;;;;;66;0;66;0;11.651.051.450.995.700;;;;;;;;;;;;;;;;clips/clip_holo_01_sub_1.mp4;audios/clip_holo_01_sub_1.mp3;audiovisual;[4.015084399841726];3;None;3;4.647.701.700.218.020;None;;;118;A;2026-04-02_16h30.55.660;exp_sofc_final;;02.01.2026;60.258.496.918.229.300;2026-04-02 16h30.58.072685 +0200
;67;0;67;;;;None;None;;;;;;;;;;;;;67;0;67;0;11.798.002.060.996.300;;;;;;;;;;;;;;;;clips/clip_holo_10_nosub_1.mp4;audios/silence.mp3;visual;[5.996437400113791];None;None;;;;;;118;A;2026-04-02_16h30.55.660;exp_sofc_final;;02.01.2026;60.258.496.918.229.300;2026-04-02 16h30.58.072685 +0200
;68;0;68;;;;None;None;;;;;;;;;;;;;68;0;68;0;11.906.356.332.995.900;;;;;;;;;;;;;;;;clips/clip_wurst_07_nosub_0.mp4;audios/clip_wurst_07_nosub_0.mp3;audiovisual;[];None;None;;;;;;118;A;2026-04-02_16h30.55.660;exp_sofc_final;;02.01.2026;60.258.496.918.229.300;2026-04-02 16h30.58.072685 +0200
;69;0;69;;;;None;None;;;;;;;;;;;;;69;0;69;0;12.015.050.659.999.200;;;;;;;;;;;;;;;;clips/clip_hund_08_sub_1.mp4;audios/clip_hund_08_sub_1.mp3;audiovisual;[];None;None;;;;;;118;A;2026-04-02_16h30.55.660;exp_sofc_final;;02.01.2026;60.258.496.918.229.300;2026-04-02 16h30.58.072685 +0200
;70;0;70;;;;3;None;2.756.331.800.017.500;None;;;;;;;;;;;70;0;70;0;12.123.805.470.997.400;;;;;;;;;;;;;;;;clips/clip_claude_05_nosub_2.mp4;audios/silence.mp3;visual;[4.531116000376642];3;None;3;2.756.331.800.017.500;None;;;118;A;2026-04-02_16h30.55.660;exp_sofc_final;;02.01.2026;60.258.496.918.229.300;2026-04-02 16h30.58.072685 +0200
;71;0;71;;;;1;None;7.379.992.099.944.500;None;;;;;;;;;;;71;0;71;0;1.227.377.668.199.590;;;;;;;;;;;;;;;;clips/clip_claude_13_nosub_0.mp4;audios/silence.mp3;visual;[];1;None;1;7.379.992.099.944.500;None;;;118;A;2026-04-02_16h30.55.660;exp_sofc_final;;02.01.2026;60.258.496.918.229.300;2026-04-02 16h30.58.072685 +0200
;72;0;72;;;;None;None;;;;;;;;;;;;;72;0;72;0;12.448.902.579.997.600;;;;;;;;;;;;;;;;clips/clip_wurst_29_sub_1.mp4;audios/silence.mp3;visual;[];None;None;;;;;;118;A;2026-04-02_16h30.55.660;exp_sofc_final;;02.01.2026;60.258.496.918.229.300;2026-04-02 16h30.58.072685 +0200
;73;0;73;;;;None;None;;;;;;;;;;;;;73;0;73;0;12.577.383.418.995.800;;;;;;;;;;;;;;;;clips/clip_weißt_27_nosub_1.mp4;audios/silence.mp3;visual;[8.031189000234008];None;None;;;;;;118;A;2026-04-02_16h30.55.660;exp_sofc_final;;02.01.2026;60.258.496.918.229.300;2026-04-02 16h30.58.072685 +0200
;74;0;74;;;;None;None;;;;;;;;;;;;;74;0;74;0;12.686.400.838.997.200;;;;;;;;;;;;;;;;clips/clip_weißt_15_sub_1.mp4;audios/clip_weißt_15_sub_1.mp3;audiovisual;[3.201461599674076, 5.592695799656212];None;None;;;;;;118;A;2026-04-02_16h30.55.660;exp_sofc_final;;02.01.2026;60.258.496.918.229.300;2026-04-02 16h30.58.072685 +0200
;75;0;75;;;;None;None;;;;;;;;;;;;;75;0;75;0;12.804.523.072.997.100;;;;;;;;;;;;;;;;clips/clip_hund_35_nosub_0.mp4;audios/clip_hund_35_nosub_0.mp3;audiovisual;[];None;None;;;;;;118;A;2026-04-02_16h30.55.660;exp_sofc_final;;02.01.2026;60.258.496.918.229.300;2026-04-02 16h30.58.072685 +0200
;76;0;76;;;;None;None;;;;;;;;;;;;;76;0;76;0;12.918.759.123.999.600;;;;;;;;;;;;;;;;clips/clip_herz_15_nosub_0.mp4;audios/silence.mp3;visual;[3.2415436999872327, 7.871702599804848];None;None;;;;;;118;A;2026-04-02_16h30.55.660;exp_sofc_final;;02.01.2026;60.258.496.918.229.300;2026-04-02 16h30.58.072685 +0200
;77;0;77;;;;None;None;;;;;;;;;;;;;77;0;77;0;1.304.745.268.699.710;;;;;;;;;;;;;;;;clips/clip_holo_02_nosub_2.mp4;audios/silence.mp3;visual;[4.046422800049186, 7.993513199966401];None;None;;;;;;118;A;2026-04-02_16h30.55.660;exp_sofc_final;;02.01.2026;60.258.496.918.229.300;2026-04-02 16h30.58.072685 +0200
;78;0;78;;;;None;None;;;;;;;;;;;;;78;0;78;0;13.167.968.288.999.900;;;;;;;;;;;;;;;;clips/clip_weißt_04_sub_0.mp4;audios/clip_weißt_04_sub_0.mp3;audiovisual;[];None;None;;;;;;118;A;2026-04-02_16h30.55.660;exp_sofc_final;;02.01.2026;60.258.496.918.229.300;2026-04-02 16h30.58.072685 +0200
;79;0;79;;;;None;None;;;;;;;;;;;;;79;0;79;0;13.278.672.432.997.200;;;;;;;;;;;;;;;;clips/clip_lied_20_nosub_2.mp4;audios/clip_lied_20_nosub_2.mp3;audiovisual;[3.7471235999837518, 8.141892199870199];None;None;;;;;;118;A;2026-04-02_16h30.55.660;exp_sofc_final;;02.01.2026;60.258.496.918.229.300;2026-04-02 16h30.58.072685 +0200
;80;0;80;;;;None;None;;;;;;;;;;;;;80;0;80;0;1.339.320.409.799.920;;;;;;;;;;;;;;;;clips/clip_claude_15_sub_0.mp4;audios/silence.mp3;visual;[];None;None;;;;;;118;A;2026-04-02_16h30.55.660;exp_sofc_final;;02.01.2026;60.258.496.918.229.300;2026-04-02 16h30.58.072685 +0200
;81;0;81;;;;None;None;;;;;;;;;;;;;81;0;81;0;1.352.492.101.199.920;;;;;;;;;;;;;;;;clips/clip_weißt_07_nosub_1.mp4;audios/clip_weißt_07_nosub_1.mp3;audiovisual;[3.76224169973284, 8.791651499923319];None;None;;;;;;118;A;2026-04-02_16h30.55.660;exp_sofc_final;;02.01.2026;60.258.496.918.229.300;2026-04-02 16h30.58.072685 +0200
;82;0;82;;;;None;None;;;;;;;;;;;;;82;0;82;0;13.630.505.517.995.900;;;;;;;;;;;;;;;;clips/clip_lied_11_nosub_1.mp4;audios/clip_lied_11_nosub_1.mp3;audiovisual;[8.28440159978345];None;None;;;;;;118;A;2026-04-02_16h30.55.660;exp_sofc_final;;02.01.2026;60.258.496.918.229.300;2026-04-02 16h30.58.072685 +0200
;83;0;83;;;;None;None;;;;;;;;;;;;;83;0;83;0;13.748.906.980.999.700;;;;;;;;;;;;;;;;clips/clip_claude_10_nosub_0.mp4;audios/clip_claude_10_nosub_0.mp3;audiovisual;[];None;None;;;;;;118;A;2026-04-02_16h30.55.660;exp_sofc_final;;02.01.2026;60.258.496.918.229.300;2026-04-02 16h30.58.072685 +0200
;84;0;84;;;;None;None;;;;;;;;;;;;;84;0;84;0;1.386.937.417.899.720;;;;;;;;;;;;;;;;clips/clip_weißt_19_sub_1.mp4;audios/silence.mp3;visual;[];None;None;;;;;;118;A;2026-04-02_16h30.55.660;exp_sofc_final;;02.01.2026;60.258.496.918.229.300;2026-04-02 16h30.58.072685 +0200
;85;0;85;;;;None;None;;;;;;;;;;;;;85;0;85;0;13.977.343.666.995.800;;;;;;;;;;;;;;;;clips/clip_lied_08_sub_1.mp4;audios/silence.mp3;visual;[8.256800400093198];None;None;;;;;;118;A;2026-04-02_16h30.55.660;exp_sofc_final;;02.01.2026;60.258.496.918.229.300;2026-04-02 16h30.58.072685 +0200
;86;0;86;;;;None;None;;;;;;;;;;;;;86;0;86;0;1.408.761.318.499.680;;;;;;;;;;;;;;;;clips/clip_weißt_29_sub_1.mp4;audios/silence.mp3;visual;[6.889595000073314];None;None;;;;;;118;A;2026-04-02_16h30.55.660;exp_sofc_final;;02.01.2026;60.258.496.918.229.300;2026-04-02 16h30.58.072685 +0200
;87;0;87;;;;None;None;;;;;;;;;;;;;87;0;87;0;14.213.806.923.995.700;;;;;;;;;;;;;;;;clips/clip_holo_12_sub_1.mp4;audios/silence.mp3;visual;[8.457586999982595];None;None;;;;;;118;A;2026-04-02_16h30.55.660;exp_sofc_final;;02.01.2026;60.258.496.918.229.300;2026-04-02 16h30.58.072685 +0200
;88;0;88;;;;None;None;;;;;;;;;;;;;88;0;88;0;14.321.639.929.995.800;;;;;;;;;;;;;;;;clips/clip_weißt_14_sub_2.mp4;audios/silence.mp3;visual;[2.589431599713862, 8.104043500032276];None;None;;;;;;118;A;2026-04-02_16h30.55.660;exp_sofc_final;;02.01.2026;60.258.496.918.229.300;2026-04-02 16h30.58.072685 +0200
;89;0;89;;;;1;None;3.584.430.600.050.830;None;;;;;;;;;;;89;0;89;0;14.418.877.609.996.100;;;;;;;;;;;;;;;;clips/clip_hund_07_sub_1.mp4;audios/silence.mp3;visual;[6.540209800004959];1;None;1;3.584.430.600.050.830;None;;;118;A;2026-04-02_16h30.55.660;exp_sofc_final;;02.01.2026;60.258.496.918.229.300;2026-04-02 16h30.58.072685 +0200
;90;0;90;;;;None;None;;;;;;;;;;;;;90;0;90;0;1.458.117.410.799.950;;;;;;;;;;;;;;;;clips/clip_dampf_03_sub_1.mp4;audios/silence.mp3;visual;[7.846344700083137];None;None;;;;;;118;A;2026-04-02_16h30.55.660;exp_sofc_final;;02.01.2026;60.258.496.918.229.300;2026-04-02 16h30.58.072685 +0200
;91;0;91;;;;None;None;;;;;;;;;;;;;91;0;91;0;14.665.623.715.999.500;;;;;;;;;;;;;;;;clips/clip_holo_11_nosub_2.mp4;audios/clip_holo_11_nosub_2.mp3;audiovisual;[5.644641800317913, 9.411785200238228];None;None;;;;;;118;A;2026-04-02_16h30.55.660;exp_sofc_final;;02.01.2026;60.258.496.918.229.300;2026-04-02 16h30.58.072685 +0200
;92;0;92;;;;4;None;10.778.463.100.083.100;None;;;;;;;;;;;92;0;92;0;14.771.421.393.998.800;;;;;;;;;;;;;;;;clips/clip_herz_11_nosub_0.mp4;audios/silence.mp3;visual;[4.983269399963319];4;None;2;10.778.463.100.083.100;None;;;118;A;2026-04-02_16h30.55.660;exp_sofc_final;;02.01.2026;60.258.496.918.229.300;2026-04-02 16h30.58.072685 +0200
;93;0;93;;;;None;None;;;;;;;;;;;;;93;0;93;0;1.498.044.607.799.960;;;;;;;;;;;;;;;;clips/clip_lied_10_nosub_1.mp4;audios/silence.mp3;visual;[4.295332700014114];None;None;;;;;;118;A;2026-04-02_16h30.55.660;exp_sofc_final;;02.01.2026;60.258.496.918.229.300;2026-04-02 16h30.58.072685 +0200
;94;0;94;;;;None;None;;;;;;;;;;;;;94;0;94;0;15.104.246.287.997.800;;;;;;;;;;;;;;;;clips/clip_holo_27_nosub_1.mp4;audios/silence.mp3;visual;[5.364644299726933];None;None;;;;;;118;A;2026-04-02_16h30.55.660;exp_sofc_final;;02.01.2026;60.258.496.918.229.300;2026-04-02 16h30.58.072685 +0200
;95;0;95;;;;None;None;;;;;;;;;;;;;95;0;95;0;1.521.253.012.499.770;;;;;;;;;;;;;;;;clips/clip_holo_08_sub_2.mp4;audios/silence.mp3;visual;[4.353144800290465, 9.393606700003147];None;None;;;;;;118;A;2026-04-02_16h30.55.660;exp_sofc_final;;02.01.2026;60.258.496.918.229.300;2026-04-02 16h30.58.072685 +0200
;96;0;96;;;;None;None;;;;;;;;;;;;;96;0;96;0;15.328.759.228.996.900;;;;;;;;;;;;;;;;clips/clip_hund_30_sub_0.mp4;audios/silence.mp3;visual;[];None;None;;;;;;118;A;2026-04-02_16h30.55.660;exp_sofc_final;;02.01.2026;60.258.496.918.229.300;2026-04-02 16h30.58.072685 +0200
;97;0;97;;;;None;None;;;;;;;;;;;;;97;0;97;0;15.458.342.323.997.000;;;;;;;;;;;;;;;;clips/clip_hund_14_nosub_2.mp4;audios/clip_hund_14_nosub_2.mp3;audiovisual;[5.687619599979371];None;None;;;;;;118;A;2026-04-02_16h30.55.660;exp_sofc_final;;02.01.2026;60.258.496.918.229.300;2026-04-02 16h30.58.072685 +0200
;98;0;98;;;;None;None;;;;;;;;;;;;;98;0;98;0;15.566.334.074.996.400;;;;;;;;;;;;;;;;clips/clip_wurst_25_sub_1.mp4;audios/silence.mp3;visual;[];None;None;;;;;;118;A;2026-04-02_16h30.55.660;exp_sofc_final;;02.01.2026;60.258.496.918.229.300;2026-04-02 16h30.58.072685 +0200
;99;0;99;;;;3;None;4.228.238.699.957.720;None;;;;;;;;;;;99;0;99;0;1.568.766.930.299.810;;;;;;;;;;;;;;;;clips/clip_claude_12_sub_0.mp4;audios/clip_claude_12_sub_0.mp3;audiovisual;[];3;None;3;4.228.238.699.957.720;None;;;118;A;2026-04-02_16h30.55.660;exp_sofc_final;;02.01.2026;60.258.496.918.229.300;2026-04-02 16h30.58.072685 +0200
;100;0;100;;;;None;None;;;;;;;;;;;;;100;0;100;0;15.831.693.168.999.600;;;;;;;;;;;;;;;;clips/clip_holo_14_nosub_0.mp4;audios/silence.mp3;visual;[];None;None;;;;;;118;A;2026-04-02_16h30.55.660;exp_sofc_final;;02.01.2026;60.258.496.918.229.300;2026-04-02 16h30.58.072685 +0200
;101;0;101;;;;None;None;;;;;;;;;;;;;101;0;101;0;15.940.321.077.997.700;;;;;;;;;;;;;;;;clips/clip_claude_01_nosub_2.mp4;audios/silence.mp3;visual;[6.698952000122517, 8.484959499910474];None;None;;;;;;118;A;2026-04-02_16h30.55.660;exp_sofc_final;;02.01.2026;60.258.496.918.229.300;2026-04-02 16h30.58.072685 +0200
;102;0;102;;;;None;None;;;;;;;;;;;;;102;0;102;0;16.058.183.811.996.100;;;;;;;;;;;;;;;;clips/clip_hund_15_sub_1.mp4;audios/silence.mp3;visual;[4.974833100102842];None;None;;;;;;118;A;2026-04-02_16h30.55.660;exp_sofc_final;;02.01.2026;60.258.496.918.229.300;2026-04-02 16h30.58.072685 +0200
;103;0;103;;;;2;None;429.732.930.008.322;None;;;;;;;;;;;103;0;103;0;1.617.136.560.099.660;;;;;;;;;;;;;;;;clips/clip_lied_16_nosub_2.mp4;audios/clip_lied_16_nosub_2.mp3;audiovisual;[4.0599970002658665, 6.880069800186902];2;None;2;429.732.930.008.322;None;;;118;A;2026-04-02_16h30.55.660;exp_sofc_final;;02.01.2026;60.258.496.918.229.300;2026-04-02 16h30.58.072685 +0200
;104;0;104;;;;None;None;;;;;;;;;;;;;104;0;104;0;16.329.450.494.996.200;;;;;;;;;;;;;;;;clips/clip_weißt_08_sub_0.mp4;audios/silence.mp3;visual;[7.67810790007934];None;None;;;;;;118;A;2026-04-02_16h30.55.660;exp_sofc_final;;02.01.2026;60.258.496.918.229.300;2026-04-02 16h30.58.072685 +0200
;105;0;105;;;;None;None;;;;;;;;;;;;;105;0;105;0;16.439.616.094.999.900;;;;;;;;;;;;;;;;clips/clip_hund_10_nosub_0.mp4;audios/clip_hund_10_nosub_0.mp3;audiovisual;[8.085762400180101];None;None;;;;;;118;A;2026-04-02_16h30.55.660;exp_sofc_final;;02.01.2026;60.258.496.918.229.300;2026-04-02 16h30.58.072685 +0200
;106;0;106;;;;3;None;32.006.898.997.351.500;None;;;;;;;;;;;106;0;106;0;16.544.451.162.996.700;;;;;;;;;;;;;;;;clips/clip_dampf_01_nosub_0.mp4;audios/silence.mp3;visual;[];3;None;3;32.006.898.997.351.500;None;;;118;A;2026-04-02_16h30.55.660;exp_sofc_final;;02.01.2026;60.258.496.918.229.300;2026-04-02 16h30.58.072685 +0200
;107;0;107;;;;None;None;;;;;;;;;;;;;107;0;107;0;16.696.308.506.997.300;;;;;;;;;;;;;;;;clips/clip_hund_03_sub_1.mp4;audios/clip_hund_03_sub_1.mp3;audiovisual;[6.858947000000626];None;None;;;;;;118;A;2026-04-02_16h30.55.660;exp_sofc_final;;02.01.2026;60.258.496.918.229.300;2026-04-02 16h30.58.072685 +0200
;108;0;108;;;;3;None;5.496.809.599.921.100;None;;;;;;;;;;;108;0;108;0;16.818.090.017.000.200;;;;;;;;;;;;;;;;clips/clip_herz_07_nosub_2.mp4;audios/silence.mp3;visual;[4.275148200336844, 10.747408000286669];3;None;3;5.496.809.599.921.100;None;;;118;A;2026-04-02_16h30.55.660;exp_sofc_final;;02.01.2026;60.258.496.918.229.300;2026-04-02 16h30.58.072685 +0200
;109;0;109;;;;None;None;;;;;;;;;;;;;109;0;109;0;17.002.609.117.999.600;;;;;;;;;;;;;;;;clips/clip_wurst_35_nosub_0.mp4;audios/silence.mp3;visual;[];None;None;;;;;;118;A;2026-04-02_16h30.55.660;exp_sofc_final;;02.01.2026;60.258.496.918.229.300;2026-04-02 16h30.58.072685 +0200
;110;0;110;;;;None;None;;;;;;;;;;;;;110;0;110;0;17.104.286.451.996.300;;;;;;;;;;;;;;;;clips/clip_dampf_02_nosub_1.mp4;audios/clip_dampf_02_nosub_1.mp3;audiovisual;[4.833749799989164];None;None;;;;;;118;A;2026-04-02_16h30.55.660;exp_sofc_final;;02.01.2026;60.258.496.918.229.300;2026-04-02 16h30.58.072685 +0200
;111;0;111;;;;None;None;;;;;;;;;;;;;111;0;111;0;17.206.050.044.000.100;;;;;;;;;;;;;;;;clips/clip_lied_21_sub_2.mp4;audios/silence.mp3;visual;[5.322254800237715, 10.490616200026125];None;None;;;;;;118;A;2026-04-02_16h30.55.660;exp_sofc_final;;02.01.2026;60.258.496.918.229.300;2026-04-02 16h30.58.072685 +0200
;112;0;112;;;;None;None;;;;;;;;;;;;;112;0;112;0;17.330.138.140.995.900;;;;;;;;;;;;;;;;clips/clip_claude_24_sub_1.mp4;audios/clip_claude_24_sub_1.mp3;audiovisual;[];None;None;;;;;;118;A;2026-04-02_16h30.55.660;exp_sofc_final;;02.01.2026;60.258.496.918.229.300;2026-04-02 16h30.58.072685 +0200
;113;0;113;;;;None;None;;;;;;;;;;;;;113;0;113;0;17.401.217.733.998.700;;;;;;;;;;;;;;;;clips/clip_holo_23_nosub_1.mp4;audios/clip_holo_23_nosub_1.mp3;audiovisual;[];None;None;;;;;;118;A;2026-04-02_16h30.55.660;exp_sofc_final;;02.01.2026;60.258.496.918.229.300;2026-04-02 16h30.58.072685 +0200
;114;0;114;;;;None;None;;;;;;;;;;;;;114;0;114;0;17.509.545.704.997.100;;;;;;;;;;;;;;;;clips/clip_hund_17_nosub_1.mp4;audios/silence.mp3;visual;[10.150279399938881];None;None;;;;;;118;A;2026-04-02_16h30.55.660;exp_sofc_final;;02.01.2026;60.258.496.918.229.300;2026-04-02 16h30.58.072685 +0200
;115;0;115;;;;None;None;;;;;;;;;;;;;115;0;115;0;17.641.542.809.000.200;;;;;;;;;;;;;;;;clips/clip_hund_05_nosub_0.mp4;audios/clip_hund_05_nosub_0.mp3;audiovisual;[4.034698700066656];None;None;;;;;;118;A;2026-04-02_16h30.55.660;exp_sofc_final;;02.01.2026;60.258.496.918.229.300;2026-04-02 16h30.58.072685 +0200
;116;0;116;;;;None;None;;;;;;;;;;;;;116;0;116;0;17.761.518.656.997.900;;;;;;;;;;;;;;;;clips/clip_lied_03_nosub_1.mp4;audios/clip_lied_03_nosub_1.mp3;audiovisual;[4.326562200207263];None;None;;;;;;118;A;2026-04-02_16h30.55.660;exp_sofc_final;;02.01.2026;60.258.496.918.229.300;2026-04-02 16h30.58.072685 +0200
;117;0;117;;;;None;None;;;;;;;;;;;;;117;0;117;0;17.873.957.417.998.400;;;;;;;;;;;;;;;;clips/clip_holo_26_sub_2.mp4;audios/clip_holo_26_sub_2.mp3;audiovisual;[6.111493399832398, 8.187911000102758];None;None;;;;;;118;A;2026-04-02_16h30.55.660;exp_sofc_final;;02.01.2026;60.258.496.918.229.300;2026-04-02 16h30.58.072685 +0200
;118;0;118;;;;None;None;;;;;;;;;;;;;118;0;118;0;17.974.382.201.996.600;;;;;;;;;;;;;;;;clips/clip_wurst_21_sub_0.mp4;audios/silence.mp3;visual;[];None;None;;;;;;118;A;2026-04-02_16h30.55.660;exp_sofc_final;;02.01.2026;60.258.496.918.229.300;2026-04-02 16h30.58.072685 +0200
;119;0;119;;;;None;space;;;12.585.751.899.983.700;None;;;;;;;;;119;0;119;0;18.089.761.572.997.000;;;;;;;;;;;;;;;;clips/clip_holo_22_nosub_1.mp4;audios/silence.mp3;visual;[9.28582530003041];None;space;;;;12.585.751.899.983.700;None;118;A;2026-04-02_16h30.55.660;exp_sofc_final;;02.01.2026;60.258.496.918.229.300;2026-04-02 16h30.58.072685 +0200
;120;0;120;;;;None;None;;;;;;;;;;;;;120;0;120;0;18.315.792.365.996.100;;;;;;;;;;;;;;;;clips/clip_hund_27_nosub_1.mp4;audios/silence.mp3;visual;[4.6461125002242625];None;None;;;;;;118;A;2026-04-02_16h30.55.660;exp_sofc_final;;02.01.2026;60.258.496.918.229.300;2026-04-02 16h30.58.072685 +0200
;121;0;121;;;;None;None;;;;;;;;;;;;;121;0;121;0;18.425.823.136.996.400;;;;;;;;;;;;;;;;clips/clip_weißt_17_nosub_0.mp4;audios/clip_weißt_17_nosub_0.mp3;audiovisual;[];None;None;;;;;;118;A;2026-04-02_16h30.55.660;exp_sofc_final;;02.01.2026;60.258.496.918.229.300;2026-04-02 16h30.58.072685 +0200
;122;0;122;;;;None;None;;;;;;;;;;;;;122;0;122;0;18.549.439.229.997.800;;;;;;;;;;;;;;;;clips/clip_herz_17_sub_0.mp4;audios/silence.mp3;visual;[5.629040200263262];None;None;;;;;;118;A;2026-04-02_16h30.55.660;exp_sofc_final;;02.01.2026;60.258.496.918.229.300;2026-04-02 16h30.58.072685 +0200
;123;0;123;;;;None;None;;;;;;;;;;;;;123;0;123;0;18.640.822.012.997.200;;;;;;;;;;;;;;;;clips/clip_wurst_31_nosub_1.mp4;audios/silence.mp3;visual;[];None;None;;;;;;118;A;2026-04-02_16h30.55.660;exp_sofc_final;;02.01.2026;60.258.496.918.229.300;2026-04-02 16h30.58.072685 +0200
;124;0;124;;;;None;None;;;;;;;;;;;;;124;0;124;0;18.759.339.112.997.900;;;;;;;;;;;;;;;;clips/clip_hund_13_nosub_1.mp4;audios/silence.mp3;visual;[5.823292000219226];None;None;;;;;;118;A;2026-04-02_16h30.55.660;exp_sofc_final;;02.01.2026;60.258.496.918.229.300;2026-04-02 16h30.58.072685 +0200
;125;0;125;;;;None;None;;;;;;;;;;;;;125;0;125;0;18.885.375.988.995.600;;;;;;;;;;;;;;;;clips/clip_weißt_28_nosub_1.mp4;audios/clip_weißt_28_nosub_1.mp3;audiovisual;[1.8870715000666678, 7.222542500123382];None;None;;;;;;118;A;2026-04-02_16h30.55.660;exp_sofc_final;;02.01.2026;60.258.496.918.229.300;2026-04-02 16h30.58.072685 +0200
;126;0;126;;;;None;None;;;;;;;;;;;;;126;0;126;0;18.994.637.459.996.100;;;;;;;;;;;;;;;;clips/clip_holo_18_nosub_0.mp4;audios/silence.mp3;visual;[6.360915000084788, 8.875219299923629];None;None;;;;;;118;A;2026-04-02_16h30.55.660;exp_sofc_final;;02.01.2026;60.258.496.918.229.300;2026-04-02 16h30.58.072685 +0200
;127;0;127;;;;None;None;;;;;;;;;;;;;127;0;127;0;1.912.126.158.799.970;;;;;;;;;;;;;;;;clips/clip_weißt_16_nosub_0.mp4;audios/silence.mp3;visual;[];None;None;;;;;;118;A;2026-04-02_16h30.55.660;exp_sofc_final;;02.01.2026;60.258.496.918.229.300;2026-04-02 16h30.58.072685 +0200
;128;0;128;;;;None;None;;;;;;;;;;;;;128;0;128;0;19.235.000.271.997.400;;;;;;;;;;;;;;;;clips/clip_weißt_01_nosub_1.mp4;audios/silence.mp3;visual;[0.6943793999962509, 5.965492400340736];None;None;;;;;;118;A;2026-04-02_16h30.55.660;exp_sofc_final;;02.01.2026;60.258.496.918.229.300;2026-04-02 16h30.58.072685 +0200
;129;0;129;;;;None;None;;;;;;;;;;;;;129;0;129;0;19.355.318.982.996.900;;;;;;;;;;;;;;;;clips/clip_hund_22_nosub_1.mp4;audios/clip_hund_22_nosub_1.mp3;audiovisual;[8.528229299932718];None;None;;;;;;118;A;2026-04-02_16h30.55.660;exp_sofc_final;;02.01.2026;60.258.496.918.229.300;2026-04-02 16h30.58.072685 +0200
;130;0;130;;;;1;None;33.148.213.997.483.200;None;;;;;;;;;;;130;0;130;0;19.463.488.100.999.900;;;;;;;;;;;;;;;;clips/clip_herz_16_nosub_0.mp4;audios/clip_herz_16_nosub_0.mp3;audiovisual;[];1;None;1;33.148.213.997.483.200;None;;;118;A;2026-04-02_16h30.55.660;exp_sofc_final;;02.01.2026;60.258.496.918.229.300;2026-04-02 16h30.58.072685 +0200
;131;0;131;;;;None;None;;;;;;;;;;;;;131;0;131;0;19.596.277.268.999.200;;;;;;;;;;;;;;;;clips/clip_hund_09_nosub_2.mp4;audios/silence.mp3;visual;[6.064899600110948, 10.513188699726015];None;None;;;;;;118;A;2026-04-02_16h30.55.660;exp_sofc_final;;02.01.2026;60.258.496.918.229.300;2026-04-02 16h30.58.072685 +0200
;132;0;132;;;;None;None;;;;;;;;;;;;;132;0;132;0;19.719.759.274.995.800;;;;;;;;;;;;;;;;clips/clip_wurst_16_nosub_0.mp4;audios/clip_wurst_16_nosub_0.mp3;audiovisual;[];None;None;;;;;;118;A;2026-04-02_16h30.55.660;exp_sofc_final;;02.01.2026;60.258.496.918.229.300;2026-04-02 16h30.58.072685 +0200
;133;0;133;;;;None;None;;;;;;;;;;;;;133;0;133;0;19.827.574.791.000.200;;;;;;;;;;;;;;;;clips/clip_wurst_27_nosub_1.mp4;audios/silence.mp3;visual;[5.988823499996215];None;None;;;;;;118;A;2026-04-02_16h30.55.660;exp_sofc_final;;02.01.2026;60.258.496.918.229.300;2026-04-02 16h30.58.072685 +0200
;134;0;134;;;;None;None;;;;;;;;;;;;;134;0;134;0;19.938.024.770.999.300;;;;;;;;;;;;;;;;clips/clip_holo_15_nosub_0.mp4;audios/clip_holo_15_nosub_0.mp3;audiovisual;[6.222273699939251];None;None;;;;;;118;A;2026-04-02_16h30.55.660;exp_sofc_final;;02.01.2026;60.258.496.918.229.300;2026-04-02 16h30.58.072685 +0200
;135;0;135;;;;None;None;;;;;;;;;;;;;135;0;135;0;2.003.949.208.999.980;;;;;;;;;;;;;;;;clips/clip_wurst_10_sub_2.mp4;audios/clip_wurst_10_sub_2.mp3;audiovisual;[4.667144499719143, 7.054559099953622];None;None;;;;;;118;A;2026-04-02_16h30.55.660;exp_sofc_final;;02.01.2026;60.258.496.918.229.300;2026-04-02 16h30.58.072685 +0200
;136;0;136;;;;None;None;;;;;;;;;;;;;136;0;136;0;20.135.145.904.999.200;;;;;;;;;;;;;;;;clips/clip_weißt_06_nosub_0.mp4;audios/silence.mp3;visual;[5.742949099745601];None;None;;;;;;118;A;2026-04-02_16h30.55.660;exp_sofc_final;;02.01.2026;60.258.496.918.229.300;2026-04-02 16h30.58.072685 +0200
;137;0;137;;;;None;None;;;;;;;;;;;;;137;0;137;0;20.247.066.712.998.700;;;;;;;;;;;;;;;;clips/clip_hund_32_sub_1.mp4;audios/clip_hund_32_sub_1.mp3;audiovisual;[4.732645000331104, 6.687225100118667];None;None;;;;;;118;A;2026-04-02_16h30.55.660;exp_sofc_final;;02.01.2026;60.258.496.918.229.300;2026-04-02 16h30.58.072685 +0200
;138;0;138;;;;None;None;;;;;;;;;;;;;138;0;138;0;20.355.940.405.000.000;;;;;;;;;;;;;;;;clips/clip_wurst_36_nosub_0.mp4;audios/clip_wurst_36_nosub_0.mp3;audiovisual;[];None;None;;;;;;118;A;2026-04-02_16h30.55.660;exp_sofc_final;;02.01.2026;60.258.496.918.229.300;2026-04-02 16h30.58.072685 +0200
;139;0;139;;;;None;None;;;;;;;;;;;;;139;0;139;0;204.633.960.499.987;;;;;;;;;;;;;;;;clips/clip_claude_08_sub_0.mp4;audios/clip_claude_08_sub_0.mp3;audiovisual;[];None;None;;;;;;118;A;2026-04-02_16h30.55.660;exp_sofc_final;;02.01.2026;60.258.496.918.229.300;2026-04-02 16h30.58.072685 +0200
;140;0;140;;;;None;None;;;;;;;;;;;;;140;0;140;0;20.567.976.617.999.300;;;;;;;;;;;;;;;;clips/clip_wurst_17_sub_0.mp4;audios/silence.mp3;visual;[];None;None;;;;;;118;A;2026-04-02_16h30.55.660;exp_sofc_final;;02.01.2026;60.258.496.918.229.300;2026-04-02 16h30.58.072685 +0200
;141;0;141;;;;4;None;2.931.830.400.135.360;None;;;;;;;;;;;141;0;141;0;2.065.702.597.899.820;;;;;;;;;;;;;;;;clips/clip_hund_04_nosub_0.mp4;audios/silence.mp3;visual;[];4;None;4;2.931.830.400.135.360;None;;;118;A;2026-04-02_16h30.55.660;exp_sofc_final;;02.01.2026;60.258.496.918.229.300;2026-04-02 16h30.58.072685 +0200
;142;0;142;;;;None;None;;;;;;;;;;;;;142;0;142;0;2.079.168.131.500.010;;;;;;;;;;;;;;;;clips/clip_weißt_13_nosub_0.mp4;audios/clip_weißt_13_nosub_0.mp3;audiovisual;[];None;None;;;;;;118;A;2026-04-02_16h30.55.660;exp_sofc_final;;02.01.2026;60.258.496.918.229.300;2026-04-02 16h30.58.072685 +0200
;143;0;143;;;;None;None;;;;;;;;;;;;;143;0;143;0;2.090.785.082.699.730;;;;;;;;;;;;;;;;clips/clip_claude_19_sub_0.mp4;audios/silence.mp3;visual;[0.0863278997130692];None;None;;;;;;118;A;2026-04-02_16h30.55.660;exp_sofc_final;;02.01.2026;60.258.496.918.229.300;2026-04-02 16h30.58.072685 +0200
;144;0;144;;;;None;None;;;;;;;;;;;;;144;0;144;0;210.204.282.079.963;;;;;;;;;;;;;;;;clips/clip_wurst_14_sub_1.mp4;audios/clip_wurst_14_sub_1.mp3;audiovisual;[7.868329299613833];None;None;;;;;;118;A;2026-04-02_16h30.55.660;exp_sofc_final;;02.01.2026;60.258.496.918.229.300;2026-04-02 16h30.58.072685 +0200
;145;0;145;;;;None;None;;;;;;;;;;;;;145;0;145;0;21.129.049.515.998.900;;;;;;;;;;;;;;;;clips/clip_wurst_06_nosub_2.mp4;audios/silence.mp3;visual;[2.5225367001257837, 8.17478430038318];None;None;;;;;;118;A;2026-04-02_16h30.55.660;exp_sofc_final;;02.01.2026;60.258.496.918.229.300;2026-04-02 16h30.58.072685 +0200
;146;0;146;;;;None;None;;;;;;;;;;;;;146;0;146;0;2.124.923.210.699.570;;;;;;;;;;;;;;;;clips/clip_wurst_20_nosub_0.mp4;audios/clip_wurst_20_nosub_0.mp3;audiovisual;[1.2877386999316514];None;None;;;;;;118;A;2026-04-02_16h30.55.660;exp_sofc_final;;02.01.2026;60.258.496.918.229.300;2026-04-02 16h30.58.072685 +0200
;147;0;147;;;;None;None;;;;;;;;;;;;;147;0;147;0;21.357.589.277.997.600;;;;;;;;;;;;;;;;clips/clip_herz_04_nosub_0.mp4;audios/clip_herz_04_nosub_0.mp3;audiovisual;[7.800111199729145];None;None;;;;;;118;A;2026-04-02_16h30.55.660;exp_sofc_final;;02.01.2026;60.258.496.918.229.300;2026-04-02 16h30.58.072685 +0200
;148;0;148;;;;3;None;8.856.403.999.961.910;None;;;;;;;;;;;148;0;148;0;2.147.629.265.299.990;;;;;;;;;;;;;;;;clips/clip_herz_09_sub_0.mp4;audios/silence.mp3;visual;[];3;None;4;8.856.403.999.961.910;None;;;118;A;2026-04-02_16h30.55.660;exp_sofc_final;;02.01.2026;60.258.496.918.229.300;2026-04-02 16h30.58.072685 +0200
;149;0;149;;;;None;None;;;;;;;;;;;;;149;0;149;0;2.169.117.538.899.640;;;;;;;;;;;;;;;;clips/clip_claude_29_sub_0.mp4;audios/clip_claude_29_sub_0.mp3;audiovisual;[];None;None;;;;;;118;A;2026-04-02_16h30.55.660;exp_sofc_final;;02.01.2026;60.258.496.918.229.300;2026-04-02 16h30.58.072685 +0200
;150;0;150;;;;;;;;;;;;;;;;;;150;0;150;0;21.799.029.103.997.100;;;;;;;;;;;;;;;;clips/clip_holo_19_nosub_1.mp4;audios/clip_holo_19_nosub_1.mp3;audiovisual;;;;;;;;;;;;;;;;
