instruction_text,thisN,thisTrialN,thisRepN,prac_attention_resp.keys,prac_attention_resp.rt,prac_attention_resp.duration,exp_atttention_resp.keys,exp_pause_resp.keys,exp_atttention_resp.rt,exp_atttention_resp.duration,exp_pause_resp.rt,exp_pause_resp.duration,instruction_trial.thisRepN,instruction_trial.thisTrialN,instruction_trial.thisN,instruction_trial.thisIndex,practice_trials.thisRepN,practice_trials.thisTrialN,practice_trials.thisN,practice_trials.thisIndex,experiment_trials.thisRepN,experiment_trials.thisTrialN,experiment_trials.thisN,experiment_trials.thisIndex,thisRow.t,notes,piloting,assigned_ls_group,slider_informed_consent.response,Practice_clip_name,Practice_video_used,Practice_audio_used,Practice_modality,Practice_subtitles,Practice_attention_check,Practice_all_cut_rts,practice_trials.prac_attention_resp.keys,Practice_correct_key_required,practice_trials.prac_attention_resp.rt,practice_trials.prac_attention_resp.duration,video_used,audio_used,condition_modality,all_cut_rts,experiment_trials.exp_atttention_resp.keys,experiment_trials.exp_pause_resp.keys,correct_key_required,experiment_trials.exp_atttention_resp.rt,experiment_trials.exp_atttention_resp.duration,experiment_trials.exp_pause_resp.rt,experiment_trials.exp_pause_resp.duration,participant,session,date,expName,expVersion,psychopyVersion,frameRate,expStart,
"Einverständniserklärung

Bitte lesen Sie die folgende Erklärung aufmerksam durch:

Ich bestätige, dass ich über 18 Jahre alt bin und ausreichend Zeit hatte, mich für die Teilnahme zu entscheiden. Ich wurde über die Erhebung, Verarbeitung und öffentliche Zugänglichmachung meiner anonymisierten Daten angemessen informiert.
Ich bin mir bewusst, dass ich das Experiment jederzeit abbrechen kann.

(Drücken Sie die Leertaste, um fortzufahren)",4,4,0,,,,,,,,,,0,4,4,4,,,,,,,,,77.49924270017073,,False,3,ich stimme zu,,,,,,,,,,,,,,,,,,,,,,,119,A,2026-04-04_21h02.32.580,exp_sofc_final,,2026.1.2,59.247462439450665,2026-04-04 21h02.35.391610 +0200,
,,,,,,,,,,,,,,,,,,,,,,,,,,,,,,,,,,,,,,,,,,,,,,,,,,,,119,A,2026-04-04_21h02.32.580,exp_sofc_final,,2026.1.2,59.247462439450665,2026-04-04 21h02.35.391610 +0200,
,0,0,0,None,,,,,,,,,,,,,0,0,0,0,,,,,101.0531370001845,,,,,clip_hund_28_nosub_0,clips/clip_hund_28_nosub_0.mp4,audios/clip_hund_28_nosub_0.mp3,audiovisual,nosub,False,[8.770037400070578],None,,,,,,,,,,,,,,,119,A,2026-04-04_21h02.32.580,exp_sofc_final,,2026.1.2,59.247462439450665,2026-04-04 21h02.35.391610 +0200,
,1,0,1,None,,,,,,,,,,,,,1,0,1,0,,,,,111.32423159992322,,,,,clip_weißt_21_nosub_0,clips/clip_weißt_21_nosub_0.mp4,audios/silence.mp3,visual,nosub,False,[0.5398599999025464],None,,,,,,,,,,,,,,,119,A,2026-04-04_21h02.32.580,exp_sofc_final,,2026.1.2,59.247462439450665,2026-04-04 21h02.35.391610 +0200,
,2,0,2,None,,,,,,,,,,,,,2,0,2,0,,,,,122.26508049992844,,,,,clip_wurst_09_sub_1,clips/clip_wurst_09_sub_1.mp4,audios/clip_wurst_09_sub_1.mp3,audiovisual,sub,False,[],None,,,,,,,,,,,,,,,119,A,2026-04-04_21h02.32.580,exp_sofc_final,,2026.1.2,59.247462439450665,2026-04-04 21h02.35.391610 +0200,
,3,0,3,None,,,,,,,,,,,,,3,0,3,0,,,,,134.41973860003054,,,,,clip_weißt_05_sub_0,clips/clip_weißt_05_sub_0.mp4,audios/clip_weißt_05_sub_0.mp3,audiovisual,sub,False,[0.4468267001211643],None,,,,,,,,,,,,,,,119,A,2026-04-04_21h02.32.580,exp_sofc_final,,2026.1.2,59.247462439450665,2026-04-04 21h02.35.391610 +0200,
,4,0,4,None,,,,,,,,,,,,,4,0,4,0,,,,,145.0734183001332,,,,,clip_hund_26_sub_1,clips/clip_hund_26_sub_1.mp4,audios/silence.mp3,visual,sub,False,[],None,,,,,,,,,,,,,,,119,A,2026-04-04_21h02.32.580,exp_sofc_final,,2026.1.2,59.247462439450665,2026-04-04 21h02.35.391610 +0200,
,5,0,5,None,,,,,,,,,,,,,5,0,5,0,,,,,155.32653560023755,,,,,clip_weißt_09_sub_1,clips/clip_weißt_09_sub_1.mp4,audios/silence.mp3,visual,sub,False,[],None,,,,,,,,,,,,,,,119,A,2026-04-04_21h02.32.580,exp_sofc_final,,2026.1.2,59.247462439450665,2026-04-04 21h02.35.391610 +0200,
,6,0,6,None,,,,,,,,,,,,,6,0,6,0,,,,,165.1810658001341,,,,,clip_weißt_18_nosub_1,clips/clip_weißt_18_nosub_1.mp4,audios/silence.mp3,visual,nosub,False,"[3.4336233003996313, 7.285678700078279, 10.826101700309664]",None,,,,,,,,,,,,,,,119,A,2026-04-04_21h02.32.580,exp_sofc_final,,2026.1.2,59.247462439450665,2026-04-04 21h02.35.391610 +0200,
,7,0,7,2,8.465021399781108,None,,,,,,,,,,,7,0,7,0,,,,,179.83777880016714,,,,,clip_hund_02_sub_1,clips/clip_hund_02_sub_1.mp4,audios/clip_hund_02_sub_1.mp3,audiovisual,sub,True,"[1.7369248000904918, 9.821826900355518]",2,2,8.465021399781108,None,,,,,,,,,,,,119,A,2026-04-04_21h02.32.580,exp_sofc_final,,2026.1.2,59.247462439450665,2026-04-04 21h02.35.391610 +0200,
,8,0,8,4,8.005462700035423,None,,,,,,,,,,,8,0,8,0,,,,,198.61141959996894,,,,,clip_hund_25_sub_1,clips/clip_hund_25_sub_1.mp4,audios/silence.mp3,visual,sub,True,[6.595551500096917],4,4,8.005462700035423,None,,,,,,,,,,,,119,A,2026-04-04_21h02.32.580,exp_sofc_final,,2026.1.2,59.247462439450665,2026-04-04 21h02.35.391610 +0200,
,9,0,9,2,24.34114409983158,None,,,,,,,,,,,9,0,9,0,,,,,215.82315520010889,,,,,clip_hund_31_sub_0,clips/clip_hund_31_sub_0.mp4,audios/silence.mp3,visual,sub,True,[],2,2,24.34114409983158,None,,,,,,,,,,,,119,A,2026-04-04_21h02.32.580,exp_sofc_final,,2026.1.2,59.247462439450665,2026-04-04 21h02.35.391610 +0200,
,10,0,10,None,,,,,,,,,,,,,10,0,10,0,,,,,249.65946150012314,,,,,clip_weißt_10_nosub_1,clips/clip_weißt_10_nosub_1.mp4,audios/clip_weißt_10_nosub_1.mp3,audiovisual,nosub,False,[5.431671599857509],None,,,,,,,,,,,,,,,119,A,2026-04-04_21h02.32.580,exp_sofc_final,,2026.1.2,59.247462439450665,2026-04-04 21h02.35.391610 +0200,
,11,0,11,2,5.502385200001299,None,,,,,,,,,,,11,0,11,0,,,,,261.4186410000548,,,,,clip_hund_06_nosub_0,clips/clip_hund_06_nosub_0.mp4,audios/clip_hund_06_nosub_0.mp3,audiovisual,nosub,True,[],2,2,5.502385200001299,None,,,,,,,,,,,,119,A,2026-04-04_21h02.32.580,exp_sofc_final,,2026.1.2,59.247462439450665,2026-04-04 21h02.35.391610 +0200,
,,,,,,,,,,,,,,,,,,,,,,,,,,,,,,,,,,,,,,,,,,,,,,,,,,,,119,A,2026-04-04_21h02.32.580,exp_sofc_final,,2026.1.2,59.247462439450665,2026-04-04 21h02.35.391610 +0200,
,0,0,0,,,,None,None,,,,,,,,,,,,,0,0,0,0,310.6712782001123,,,,,,,,,,,,,,,,clips/clip_lied_06_sub_1.mp4,audios/clip_lied_06_sub_1.mp3,audiovisual,[10.639782600104809],None,None,,,,,,119,A,2026-04-04_21h02.32.580,exp_sofc_final,,2026.1.2,59.247462439450665,2026-04-04 21h02.35.391610 +0200,
,1,0,1,,,,4,None,10.810976100154221,None,,,,,,,,,,,1,0,1,0,324.0994826001115,,,,,,,,,,,,,,,,clips/clip_hund_34_sub_1.mp4,audios/clip_hund_34_sub_1.mp3,audiovisual,[],4,None,4,10.810976100154221,None,,,119,A,2026-04-04_21h02.32.580,exp_sofc_final,,2026.1.2,59.247462439450665,2026-04-04 21h02.35.391610 +0200,
,2,0,2,,,,None,None,,,,,,,,,,,,,2,0,2,0,346.15608419990167,,,,,,,,,,,,,,,,clips/clip_claude_18_nosub_0.mp4,audios/silence.mp3,visual,[],None,None,,,,,,119,A,2026-04-04_21h02.32.580,exp_sofc_final,,2026.1.2,59.247462439450665,2026-04-04 21h02.35.391610 +0200,
,3,0,3,,,,None,None,,,,,,,,,,,,,3,0,3,0,355.9851362002082,,,,,,,,,,,,,,,,clips/clip_wurst_10_sub_2.mp4,audios/silence.mp3,visual,[4.768110000062734],None,None,,,,,,119,A,2026-04-04_21h02.32.580,exp_sofc_final,,2026.1.2,59.247462439450665,2026-04-04 21h02.35.391610 +0200,
,4,0,4,,,,None,None,,,,,,,,,,,,,4,0,4,0,365.6171319000423,,,,,,,,,,,,,,,,clips/clip_hund_19_nosub_0.mp4,audios/clip_hund_19_nosub_0.mp3,audiovisual,[],None,None,,,,,,119,A,2026-04-04_21h02.32.580,exp_sofc_final,,2026.1.2,59.247462439450665,2026-04-04 21h02.35.391610 +0200,
,5,0,5,,,,None,None,,,,,,,,,,,,,5,0,5,0,377.76644450007007,,,,,,,,,,,,,,,,clips/clip_holo_26_sub_2.mp4,audios/silence.mp3,visual,"[0.44839629996567965, 9.701401699800044]",None,None,,,,,,119,A,2026-04-04_21h02.32.580,exp_sofc_final,,2026.1.2,59.247462439450665,2026-04-04 21h02.35.391610 +0200,
,6,0,6,,,,None,None,,,,,,,,,,,,,6,0,6,0,387.8924757000059,,,,,,,,,,,,,,,,clips/clip_holo_03_nosub_1.mp4,audios/silence.mp3,visual,[],None,None,,,,,,119,A,2026-04-04_21h02.32.580,exp_sofc_final,,2026.1.2,59.247462439450665,2026-04-04 21h02.35.391610 +0200,
,7,0,7,,,,None,None,,,,,,,,,,,,,7,0,7,0,398.32892820006236,,,,,,,,,,,,,,,,clips/clip_lied_04_nosub_0.mp4,audios/clip_lied_04_nosub_0.mp3,audiovisual,[],None,None,,,,,,119,A,2026-04-04_21h02.32.580,exp_sofc_final,,2026.1.2,59.247462439450665,2026-04-04 21h02.35.391610 +0200,
,8,0,8,,,,None,None,,,,,,,,,,,,,8,0,8,0,410.20655000023544,,,,,,,,,,,,,,,,clips/clip_hund_27_sub_1.mp4,audios/clip_hund_27_sub_1.mp3,audiovisual,"[0.38475590012967587, 5.002236700151116]",None,None,,,,,,119,A,2026-04-04_21h02.32.580,exp_sofc_final,,2026.1.2,59.247462439450665,2026-04-04 21h02.35.391610 +0200,
,9,0,9,,,,1,None,5.102816700004041,None,,,,,,,,,,,9,0,9,0,421.33935050014406,,,,,,,,,,,,,,,,clips/clip_claude_04_sub_2.mp4,audios/silence.mp3,visual,[8.599512999877334],1,None,1,5.102816700004041,None,,,119,A,2026-04-04_21h02.32.580,exp_sofc_final,,2026.1.2,59.247462439450665,2026-04-04 21h02.35.391610 +0200,
,10,0,10,,,,3,None,5.8784030000679195,None,,,,,,,,,,,10,0,10,0,436.3915331000462,,,,,,,,,,,,,,,,clips/clip_lied_18_sub_2.mp4,audios/silence.mp3,visual,"[5.745205599814653, 7.956100599840283]",3,None,3,5.8784030000679195,None,,,119,A,2026-04-04_21h02.32.580,exp_sofc_final,,2026.1.2,59.247462439450665,2026-04-04 21h02.35.391610 +0200,
,11,0,11,,,,None,None,,,,,,,,,,,,,11,0,11,0,453.90630380017683,,,,,,,,,,,,,,,,clips/clip_weißt_27_sub_1.mp4,audios/clip_weißt_27_sub_1.mp3,audiovisual,[8.304462499916553],None,None,,,,,,119,A,2026-04-04_21h02.32.580,exp_sofc_final,,2026.1.2,59.247462439450665,2026-04-04 21h02.35.391610 +0200,
,12,0,12,,,,None,None,,,,,,,,,,,,,12,0,12,0,464.7028630999848,,,,,,,,,,,,,,,,clips/clip_claude_07_nosub_0.mp4,audios/clip_claude_07_nosub_0.mp3,audiovisual,[],None,None,,,,,,119,A,2026-04-04_21h02.32.580,exp_sofc_final,,2026.1.2,59.247462439450665,2026-04-04 21h02.35.391610 +0200,
,13,0,13,,,,None,None,,,,,,,,,,,,,13,0,13,0,475.5449657002464,,,,,,,,,,,,,,,,clips/clip_hund_35_nosub_0.mp4,audios/silence.mp3,visual,[],None,None,,,,,,119,A,2026-04-04_21h02.32.580,exp_sofc_final,,2026.1.2,59.247462439450665,2026-04-04 21h02.35.391610 +0200,
,14,0,14,,,,None,None,,,,,,,,,,,,,14,0,14,0,486.8054459001869,,,,,,,,,,,,,,,,clips/clip_herz_14_sub_0.mp4,audios/silence.mp3,visual,[],None,None,,,,,,119,A,2026-04-04_21h02.32.580,exp_sofc_final,,2026.1.2,59.247462439450665,2026-04-04 21h02.35.391610 +0200,
,15,0,15,,,,None,None,,,,,,,,,,,,,15,0,15,0,498.2617907002568,,,,,,,,,,,,,,,,clips/clip_weißt_01_sub_1.mp4,audios/clip_weißt_01_sub_1.mp3,audiovisual,[6.1674889996647835],None,None,,,,,,119,A,2026-04-04_21h02.32.580,exp_sofc_final,,2026.1.2,59.247462439450665,2026-04-04 21h02.35.391610 +0200,
,16,0,16,,,,None,None,,,,,,,,,,,,,16,0,16,0,510.0654813000001,,,,,,,,,,,,,,,,clips/clip_herz_01_nosub_1.mp4,audios/clip_herz_01_nosub_1.mp3,audiovisual,[],None,None,,,,,,119,A,2026-04-04_21h02.32.580,exp_sofc_final,,2026.1.2,59.247462439450665,2026-04-04 21h02.35.391610 +0200,
,17,0,17,,,,None,None,,,,,,,,,,,,,17,0,17,0,521.5356287998147,,,,,,,,,,,,,,,,clips/clip_lied_22_sub_1.mp4,audios/silence.mp3,visual,[6.615299299824983],None,None,,,,,,119,A,2026-04-04_21h02.32.580,exp_sofc_final,,2026.1.2,59.247462439450665,2026-04-04 21h02.35.391610 +0200,
,18,0,18,,,,None,None,,,,,,,,,,,,,18,0,18,0,532.8860885999165,,,,,,,,,,,,,,,,clips/clip_wurst_30_sub_1.mp4,audios/silence.mp3,visual,[],None,None,,,,,,119,A,2026-04-04_21h02.32.580,exp_sofc_final,,2026.1.2,59.247462439450665,2026-04-04 21h02.35.391610 +0200,
,19,0,19,,,,None,None,,,,,,,,,,,,,19,0,19,0,543.8047270001844,,,,,,,,,,,,,,,,clips/clip_lied_14_sub_0.mp4,audios/silence.mp3,visual,[3.1756775001995265],None,None,,,,,,119,A,2026-04-04_21h02.32.580,exp_sofc_final,,2026.1.2,59.247462439450665,2026-04-04 21h02.35.391610 +0200,
,20,0,20,,,,None,None,,,,,,,,,,,,,20,0,20,0,554.3279166999273,,,,,,,,,,,,,,,,clips/clip_holo_19_nosub_1.mp4,audios/silence.mp3,visual,[7.307380700018257],None,None,,,,,,119,A,2026-04-04_21h02.32.580,exp_sofc_final,,2026.1.2,59.247462439450665,2026-04-04 21h02.35.391610 +0200,
,21,0,21,,,,None,None,,,,,,,,,,,,,21,0,21,0,565.2429525000043,,,,,,,,,,,,,,,,clips/clip_claude_06_nosub_1.mp4,audios/silence.mp3,visual,[4.111725400201976],None,None,,,,,,119,A,2026-04-04_21h02.32.580,exp_sofc_final,,2026.1.2,59.247462439450665,2026-04-04 21h02.35.391610 +0200,
,22,0,22,,,,None,None,,,,,,,,,,,,,22,0,22,0,578.6569006000645,,,,,,,,,,,,,,,,clips/clip_hund_30_nosub_0.mp4,audios/clip_hund_30_nosub_0.mp3,audiovisual,[],None,None,,,,,,119,A,2026-04-04_21h02.32.580,exp_sofc_final,,2026.1.2,59.247462439450665,2026-04-04 21h02.35.391610 +0200,
,23,0,23,,,,1,None,7.328179399948567,None,,,,,,,,,,,23,0,23,0,591.6076965001412,,,,,,,,,,,,,,,,clips/clip_claude_19_nosub_0.mp4,audios/clip_claude_19_nosub_0.mp3,audiovisual,[0.7553122998215258],1,None,1,7.328179399948567,None,,,119,A,2026-04-04_21h02.32.580,exp_sofc_final,,2026.1.2,59.247462439450665,2026-04-04 21h02.35.391610 +0200,
,24,0,24,,,,None,None,,,,,,,,,,,,,24,0,24,0,610.2873738999479,,,,,,,,,,,,,,,,clips/clip_lied_10_sub_1.mp4,audios/clip_lied_10_sub_1.mp3,audiovisual,[4.9898462002165616],None,None,,,,,,119,A,2026-04-04_21h02.32.580,exp_sofc_final,,2026.1.2,59.247462439450665,2026-04-04 21h02.35.391610 +0200,
,25,0,25,,,,None,None,,,,,,,,,,,,,25,0,25,0,622.5798245002516,,,,,,,,,,,,,,,,clips/clip_herz_08_nosub_0.mp4,audios/silence.mp3,visual,"[5.602775400038809, 9.831014099996537]",None,None,,,,,,119,A,2026-04-04_21h02.32.580,exp_sofc_final,,2026.1.2,59.247462439450665,2026-04-04 21h02.35.391610 +0200,
,26,0,26,,,,None,None,,,,,,,,,,,,,26,0,26,0,635.5331796999089,,,,,,,,,,,,,,,,clips/clip_weißt_17_nosub_0.mp4,audios/silence.mp3,visual,[],None,None,,,,,,119,A,2026-04-04_21h02.32.580,exp_sofc_final,,2026.1.2,59.247462439450665,2026-04-04 21h02.35.391610 +0200,
,27,0,27,,,,None,None,,,,,,,,,,,,,27,0,27,0,647.8411396001466,,,,,,,,,,,,,,,,clips/clip_holo_16_nosub_1.mp4,audios/clip_holo_16_nosub_1.mp3,audiovisual,[10.330188100226223],None,None,,,,,,119,A,2026-04-04_21h02.32.580,exp_sofc_final,,2026.1.2,59.247462439450665,2026-04-04 21h02.35.391610 +0200,
,28,0,28,,,,1,None,5.887649400159717,None,,,,,,,,,,,28,0,28,0,660.7302537998185,,,,,,,,,,,,,,,,clips/clip_hund_17_sub_1.mp4,audios/clip_hund_17_sub_1.mp3,audiovisual,[10.375061200000346],1,None,1,5.887649400159717,None,,,119,A,2026-04-04_21h02.32.580,exp_sofc_final,,2026.1.2,59.247462439450665,2026-04-04 21h02.35.391610 +0200,
,29,0,29,,,,None,None,,,,,,,,,,,,,29,0,29,0,679.8663741000928,,,,,,,,,,,,,,,,clips/clip_dampf_01_sub_0.mp4,audios/clip_dampf_01_sub_0.mp3,audiovisual,[],None,None,,,,,,119,A,2026-04-04_21h02.32.580,exp_sofc_final,,2026.1.2,59.247462439450665,2026-04-04 21h02.35.391610 +0200,
,30,0,30,,,,None,None,,,,,,,,,,,,,30,0,30,0,690.0774340000935,,,,,,,,,,,,,,,,clips/clip_dampf_06_nosub_2.mp4,audios/silence.mp3,visual,[],None,None,,,,,,119,A,2026-04-04_21h02.32.580,exp_sofc_final,,2026.1.2,59.247462439450665,2026-04-04 21h02.35.391610 +0200,
,31,0,31,,,,None,None,,,,,,,,,,,,,31,0,31,0,699.9655532999896,,,,,,,,,,,,,,,,clips/clip_hund_08_sub_1.mp4,audios/silence.mp3,visual,[7.634838100057095],None,None,,,,,,119,A,2026-04-04_21h02.32.580,exp_sofc_final,,2026.1.2,59.247462439450665,2026-04-04 21h02.35.391610 +0200,
,32,0,32,,,,None,None,,,,,,,,,,,,,32,0,32,0,710.8390798000619,,,,,,,,,,,,,,,,clips/clip_holo_24_nosub_2.mp4,audios/clip_holo_24_nosub_2.mp3,audiovisual,"[7.09189820010215, 10.237791300285608]",None,None,,,,,,119,A,2026-04-04_21h02.32.580,exp_sofc_final,,2026.1.2,59.247462439450665,2026-04-04 21h02.35.391610 +0200,
,33,0,33,,,,None,None,,,,,,,,,,,,,33,0,33,0,721.5468743001111,,,,,,,,,,,,,,,,clips/clip_wurst_08_nosub_1.mp4,audios/clip_wurst_08_nosub_1.mp3,audiovisual,[5.388080999720842],None,None,,,,,,119,A,2026-04-04_21h02.32.580,exp_sofc_final,,2026.1.2,59.247462439450665,2026-04-04 21h02.35.391610 +0200,
,34,0,34,,,,4,None,8.117869000416249,None,,,,,,,,,,,34,0,34,0,730.9001910001971,,,,,,,,,,,,,,,,clips/clip_hund_12_sub_1.mp4,audios/silence.mp3,visual,[],4,None,4,8.117869000416249,None,,,119,A,2026-04-04_21h02.32.580,exp_sofc_final,,2026.1.2,59.247462439450665,2026-04-04 21h02.35.391610 +0200,
,35,0,35,,,,None,None,,,,,,,,,,,,,35,0,35,0,751.3352187001146,,,,,,,,,,,,,,,,clips/clip_hund_01_nosub_0.mp4,audios/clip_hund_01_nosub_0.mp3,audiovisual,[],None,None,,,,,,119,A,2026-04-04_21h02.32.580,exp_sofc_final,,2026.1.2,59.247462439450665,2026-04-04 21h02.35.391610 +0200,
,36,0,36,,,,4,None,8.073689099866897,None,,,,,,,,,,,36,0,36,0,762.9035704000853,,,,,,,,,,,,,,,,clips/clip_holo_20_nosub_1.mp4,audios/clip_holo_20_nosub_1.mp3,audiovisual,[],4,None,4,8.073689099866897,None,,,119,A,2026-04-04_21h02.32.580,exp_sofc_final,,2026.1.2,59.247462439450665,2026-04-04 21h02.35.391610 +0200,
,37,0,37,,,,None,None,,,,,,,,,,,,,37,0,37,0,781.3657300998457,,,,,,,,,,,,,,,,clips/clip_claude_20_sub_1.mp4,audios/silence.mp3,visual,[6.588609000202268],None,None,,,,,,119,A,2026-04-04_21h02.32.580,exp_sofc_final,,2026.1.2,59.247462439450665,2026-04-04 21h02.35.391610 +0200,
,38,0,38,,,,None,None,,,,,,,,,,,,,38,0,38,0,794.2198521001264,,,,,,,,,,,,,,,,clips/clip_wurst_24_nosub_1.mp4,audios/silence.mp3,visual,[],None,None,,,,,,119,A,2026-04-04_21h02.32.580,exp_sofc_final,,2026.1.2,59.247462439450665,2026-04-04 21h02.35.391610 +0200,
,39,0,39,,,,None,None,,,,,,,,,,,,,39,0,39,0,806.3126228000037,,,,,,,,,,,,,,,,clips/clip_holo_28_nosub_0.mp4,audios/silence.mp3,visual,[],None,None,,,,,,119,A,2026-04-04_21h02.32.580,exp_sofc_final,,2026.1.2,59.247462439450665,2026-04-04 21h02.35.391610 +0200,
,40,0,40,,,,None,None,,,,,,,,,,,,,40,0,40,0,815.7558685000986,,,,,,,,,,,,,,,,clips/clip_hund_04_sub_0.mp4,audios/clip_hund_04_sub_0.mp3,audiovisual,[],None,None,,,,,,119,A,2026-04-04_21h02.32.580,exp_sofc_final,,2026.1.2,59.247462439450665,2026-04-04 21h02.35.391610 +0200,
,41,0,41,,,,None,None,,,,,,,,,,,,,41,0,41,0,826.2025791001506,,,,,,,,,,,,,,,,clips/clip_wurst_33_nosub_0.mp4,audios/clip_wurst_33_nosub_0.mp3,audiovisual,[],None,None,,,,,,119,A,2026-04-04_21h02.32.580,exp_sofc_final,,2026.1.2,59.247462439450665,2026-04-04 21h02.35.391610 +0200,
,42,0,42,,,,None,None,,,,,,,,,,,,,42,0,42,0,836.740479900036,,,,,,,,,,,,,,,,clips/clip_hund_36_nosub_2.mp4,audios/clip_hund_36_nosub_2.mp3,audiovisual,"[2.720244700089097, 6.054600500036031]",None,None,,,,,,119,A,2026-04-04_21h02.32.580,exp_sofc_final,,2026.1.2,59.247462439450665,2026-04-04 21h02.35.391610 +0200,
,43,0,43,,,,None,None,,,,,,,,,,,,,43,0,43,0,846.8238739999942,,,,,,,,,,,,,,,,clips/clip_claude_13_sub_0.mp4,audios/clip_claude_13_sub_0.mp3,audiovisual,[],None,None,,,,,,119,A,2026-04-04_21h02.32.580,exp_sofc_final,,2026.1.2,59.247462439450665,2026-04-04 21h02.35.391610 +0200,
,44,0,44,,,,None,None,,,,,,,,,,,,,44,0,44,0,856.8283341000788,,,,,,,,,,,,,,,,clips/clip_holo_18_sub_0.mp4,audios/clip_holo_18_sub_0.mp3,audiovisual,[9.280164000112563],None,None,,,,,,119,A,2026-04-04_21h02.32.580,exp_sofc_final,,2026.1.2,59.247462439450665,2026-04-04 21h02.35.391610 +0200,
,45,0,45,,,,None,None,,,,,,,,,,,,,45,0,45,0,869.4556038002484,,,,,,,,,,,,,,,,clips/clip_wurst_32_nosub_1.mp4,audios/silence.mp3,visual,[],None,None,,,,,,119,A,2026-04-04_21h02.32.580,exp_sofc_final,,2026.1.2,59.247462439450665,2026-04-04 21h02.35.391610 +0200,
,46,0,46,,,,None,None,,,,,,,,,,,,,46,0,46,0,880.9824446998537,,,,,,,,,,,,,,,,clips/clip_weißt_14_nosub_2.mp4,audios/clip_weißt_14_nosub_2.mp3,audiovisual,"[6.995210099965334, 9.175454400014132]",None,None,,,,,,119,A,2026-04-04_21h02.32.580,exp_sofc_final,,2026.1.2,59.247462439450665,2026-04-04 21h02.35.391610 +0200,
,47,0,47,,,,None,None,,,,,,,,,,,,,47,0,47,0,890.7439198000357,,,,,,,,,,,,,,,,clips/clip_claude_11_nosub_0.mp4,audios/clip_claude_11_nosub_0.mp3,audiovisual,[],None,None,,,,,,119,A,2026-04-04_21h02.32.580,exp_sofc_final,,2026.1.2,59.247462439450665,2026-04-04 21h02.35.391610 +0200,
,48,0,48,,,,None,None,,,,,,,,,,,,,48,0,48,0,901.6006590998732,,,,,,,,,,,,,,,,clips/clip_claude_14_nosub_0.mp4,audios/silence.mp3,visual,"[3.462505199946463, 8.812401799950749]",None,None,,,,,,119,A,2026-04-04_21h02.32.580,exp_sofc_final,,2026.1.2,59.247462439450665,2026-04-04 21h02.35.391610 +0200,
,49,0,49,,,,4,None,6.215415300335735,None,,,,,,,,,,,49,0,49,0,913.6100564999506,,,,,,,,,,,,,,,,clips/clip_claude_12_sub_0.mp4,audios/silence.mp3,visual,[],4,None,4,6.215415300335735,None,,,119,A,2026-04-04_21h02.32.580,exp_sofc_final,,2026.1.2,59.247462439450665,2026-04-04 21h02.35.391610 +0200,
,50,0,50,,,,2,None,11.410777499899268,None,,,,,,,,,,,50,0,50,0,930.1318616000935,,,,,,,,,,,,,,,,clips/clip_wurst_29_nosub_1.mp4,audios/clip_wurst_29_nosub_1.mp3,audiovisual,[],2,None,2,11.410777499899268,None,,,119,A,2026-04-04_21h02.32.580,exp_sofc_final,,2026.1.2,59.247462439450665,2026-04-04 21h02.35.391610 +0200,
,51,0,51,,,,None,None,,,,,,,,,,,,,51,0,51,0,954.3962659998797,,,,,,,,,,,,,,,,clips/clip_holo_17_sub_0.mp4,audios/silence.mp3,visual,[],None,None,,,,,,119,A,2026-04-04_21h02.32.580,exp_sofc_final,,2026.1.2,59.247462439450665,2026-04-04 21h02.35.391610 +0200,
,52,0,52,,,,None,None,,,,,,,,,,,,,52,0,52,0,965.1096382001415,,,,,,,,,,,,,,,,clips/clip_holo_22_sub_1.mp4,audios/clip_holo_22_sub_1.mp3,audiovisual,[],None,None,,,,,,119,A,2026-04-04_21h02.32.580,exp_sofc_final,,2026.1.2,59.247462439450665,2026-04-04 21h02.35.391610 +0200,
,53,0,53,,,,None,None,,,,,,,,,,,,,53,0,53,0,975.1352010001428,,,,,,,,,,,,,,,,clips/clip_wurst_13_nosub_0.mp4,audios/clip_wurst_13_nosub_0.mp3,audiovisual,[],None,None,,,,,,119,A,2026-04-04_21h02.32.580,exp_sofc_final,,2026.1.2,59.247462439450665,2026-04-04 21h02.35.391610 +0200,
,54,0,54,,,,None,None,,,,,,,,,,,,,54,0,54,0,985.6553303999826,,,,,,,,,,,,,,,,clips/clip_herz_15_sub_0.mp4,audios/clip_herz_15_sub_0.mp3,audiovisual,"[3.5749641000293195, 8.066269099712372]",None,None,,,,,,119,A,2026-04-04_21h02.32.580,exp_sofc_final,,2026.1.2,59.247462439450665,2026-04-04 21h02.35.391610 +0200,
,55,0,55,,,,None,None,,,,,,,,,,,,,55,0,55,0,998.4618847002275,,,,,,,,,,,,,,,,clips/clip_claude_24_sub_1.mp4,audios/silence.mp3,visual,[6.140144300181419],None,None,,,,,,119,A,2026-04-04_21h02.32.580,exp_sofc_final,,2026.1.2,59.247462439450665,2026-04-04 21h02.35.391610 +0200,
,56,0,56,,,,None,None,,,,,,,,,,,,,56,0,56,0,1005.6408759998158,,,,,,,,,,,,,,,,clips/clip_weißt_08_nosub_0.mp4,audios/clip_weißt_08_nosub_0.mp3,audiovisual,[7.767606399953365],None,None,,,,,,119,A,2026-04-04_21h02.32.580,exp_sofc_final,,2026.1.2,59.247462439450665,2026-04-04 21h02.35.391610 +0200,
,57,0,57,,,,2,None,9.410625500138849,None,,,,,,,,,,,57,0,57,0,1016.6968760001473,,,,,,,,,,,,,,,,clips/clip_wurst_36_nosub_0.mp4,audios/silence.mp3,visual,[],2,None,2,9.410625500138849,None,,,119,A,2026-04-04_21h02.32.580,exp_sofc_final,,2026.1.2,59.247462439450665,2026-04-04 21h02.35.391610 +0200,
,58,0,58,,,,None,None,,,,,,,,,,,,,58,0,58,0,1037.0486856000498,,,,,,,,,,,,,,,,clips/clip_weißt_03_nosub_0.mp4,audios/clip_weißt_03_nosub_0.mp3,audiovisual,[],None,None,,,,,,119,A,2026-04-04_21h02.32.580,exp_sofc_final,,2026.1.2,59.247462439450665,2026-04-04 21h02.35.391610 +0200,
,59,0,59,,,,None,space,,,6.765935599803925,None,,,,,,,,,59,0,59,0,1049.8646670999005,,,,,,,,,,,,,,,,clips/clip_claude_25_sub_0.mp4,audios/clip_claude_25_sub_0.mp3,audiovisual,[],None,space,,,,6.765935599803925,None,119,A,2026-04-04_21h02.32.580,exp_sofc_final,,2026.1.2,59.247462439450665,2026-04-04 21h02.35.391610 +0200,
,60,0,60,,,,4,None,4.9161193002946675,None,,,,,,,,,,,60,0,60,0,1067.7874847999774,,,,,,,,,,,,,,,,clips/clip_claude_05_sub_2.mp4,audios/clip_claude_05_sub_2.mp3,audiovisual,[4.655060500372201],4,None,4,4.9161193002946675,None,,,119,A,2026-04-04_21h02.32.580,exp_sofc_final,,2026.1.2,59.247462439450665,2026-04-04 21h02.35.391610 +0200,
,61,0,61,,,,4,None,7.602915499825031,None,,,,,,,,,,,61,0,61,0,1084.8901965999976,,,,,,,,,,,,,,,,clips/clip_herz_10_sub_0.mp4,audios/silence.mp3,visual,[],4,None,4,7.602915499825031,None,,,119,A,2026-04-04_21h02.32.580,exp_sofc_final,,2026.1.2,59.247462439450665,2026-04-04 21h02.35.391610 +0200,
,62,0,62,,,,None,None,,,,,,,,,,,,,62,0,62,0,1103.5528255999088,,,,,,,,,,,,,,,,clips/clip_holo_12_nosub_1.mp4,audios/clip_holo_12_nosub_1.mp3,audiovisual,[8.603363400325179],None,None,,,,,,119,A,2026-04-04_21h02.32.580,exp_sofc_final,,2026.1.2,59.247462439450665,2026-04-04 21h02.35.391610 +0200,
,63,0,63,,,,None,None,,,,,,,,,,,,,63,0,63,0,1114.3162862001918,,,,,,,,,,,,,,,,clips/clip_wurst_17_nosub_0.mp4,audios/clip_wurst_17_nosub_0.mp3,audiovisual,[],None,None,,,,,,119,A,2026-04-04_21h02.32.580,exp_sofc_final,,2026.1.2,59.247462439450665,2026-04-04 21h02.35.391610 +0200,
,64,0,64,,,,None,None,,,,,,,,,,,,,64,0,64,0,1123.2493660999462,,,,,,,,,,,,,,,,clips/clip_herz_07_sub_2.mp4,audios/clip_herz_07_sub_2.mp3,audiovisual,"[4.879830500110984, 11.368485299870372]",None,None,,,,,,119,A,2026-04-04_21h02.32.580,exp_sofc_final,,2026.1.2,59.247462439450665,2026-04-04 21h02.35.391610 +0200,
,65,0,65,,,,None,None,,,,,,,,,,,,,65,0,65,0,1136.089697100222,,,,,,,,,,,,,,,,clips/clip_weißt_15_sub_1.mp4,audios/silence.mp3,visual,"[3.09159450000152, 5.490505400113761]",None,None,,,,,,119,A,2026-04-04_21h02.32.580,exp_sofc_final,,2026.1.2,59.247462439450665,2026-04-04 21h02.35.391610 +0200,
,66,0,66,,,,None,None,,,,,,,,,,,,,66,0,66,0,1147.9158037998714,,,,,,,,,,,,,,,,clips/clip_holo_21_sub_1.mp4,audios/silence.mp3,visual,[4.291252499911934],None,None,,,,,,119,A,2026-04-04_21h02.32.580,exp_sofc_final,,2026.1.2,59.247462439450665,2026-04-04 21h02.35.391610 +0200,
,67,0,67,,,,4,None,5.6731826001778245,None,,,,,,,,,,,67,0,67,0,1158.910338100046,,,,,,,,,,,,,,,,clips/clip_wurst_22_sub_0.mp4,audios/silence.mp3,visual,[],4,None,4,5.6731826001778245,None,,,119,A,2026-04-04_21h02.32.580,exp_sofc_final,,2026.1.2,59.247462439450665,2026-04-04 21h02.35.391610 +0200,
,68,0,68,,,,1,None,7.303621199913323,None,,,,,,,,,,,68,0,68,0,1177.2439955999143,,,,,,,,,,,,,,,,clips/clip_claude_29_sub_0.mp4,audios/silence.mp3,visual,[],1,None,1,7.303621199913323,None,,,119,A,2026-04-04_21h02.32.580,exp_sofc_final,,2026.1.2,59.247462439450665,2026-04-04 21h02.35.391610 +0200,
,69,0,69,,,,None,None,,,,,,,,,,,,,69,0,69,0,1195.5122934998944,,,,,,,,,,,,,,,,clips/clip_hund_10_nosub_0.mp4,audios/silence.mp3,visual,[],None,None,,,,,,119,A,2026-04-04_21h02.32.580,exp_sofc_final,,2026.1.2,59.247462439450665,2026-04-04 21h02.35.391610 +0200,
,70,0,70,,,,2,None,5.454984199721366,None,,,,,,,,,,,70,0,70,0,1205.8586927000433,,,,,,,,,,,,,,,,clips/clip_weißt_30_sub_2.mp4,audios/silence.mp3,visual,"[3.228538100142032, 12.103531000204384]",2,None,2,5.454984199721366,None,,,119,A,2026-04-04_21h02.32.580,exp_sofc_final,,2026.1.2,59.247462439450665,2026-04-04 21h02.35.391610 +0200,
,71,0,71,,,,None,None,,,,,,,,,,,,,71,0,71,0,1224.3442732999101,,,,,,,,,,,,,,,,clips/clip_wurst_03_nosub_1.mp4,audios/silence.mp3,visual,[4.270337500143796],None,None,,,,,,119,A,2026-04-04_21h02.32.580,exp_sofc_final,,2026.1.2,59.247462439450665,2026-04-04 21h02.35.391610 +0200,
,72,0,72,,,,None,None,,,,,,,,,,,,,72,0,72,0,1237.0689043998718,,,,,,,,,,,,,,,,clips/clip_holo_04_nosub_2.mp4,audios/clip_holo_04_nosub_2.mp3,audiovisual,"[3.154710399918258, 7.35955259995535]",None,None,,,,,,119,A,2026-04-04_21h02.32.580,exp_sofc_final,,2026.1.2,59.247462439450665,2026-04-04 21h02.35.391610 +0200,
,73,0,73,,,,None,None,,,,,,,,,,,,,73,0,73,0,1249.8619484999217,,,,,,,,,,,,,,,,clips/clip_wurst_28_nosub_1.mp4,audios/silence.mp3,visual,[],None,None,,,,,,119,A,2026-04-04_21h02.32.580,exp_sofc_final,,2026.1.2,59.247462439450665,2026-04-04 21h02.35.391610 +0200,
,74,0,74,,,,4,None,7.813057999592274,None,,,,,,,,,,,74,0,74,0,1261.0409392998554,,,,,,,,,,,,,,,,clips/clip_claude_02_nosub_1.mp4,audios/silence.mp3,visual,[5.879733100067824],4,None,2,7.813057999592274,None,,,119,A,2026-04-04_21h02.32.580,exp_sofc_final,,2026.1.2,59.247462439450665,2026-04-04 21h02.35.391610 +0200,
,75,0,75,,,,None,None,,,,,,,,,,,,,75,0,75,0,1279.6026647002436,,,,,,,,,,,,,,,,clips/clip_holo_06_sub_2.mp4,audios/clip_holo_06_sub_2.mp3,audiovisual,"[5.277596100233495, 8.88316379999742]",None,None,,,,,,119,A,2026-04-04_21h02.32.580,exp_sofc_final,,2026.1.2,59.247462439450665,2026-04-04 21h02.35.391610 +0200,
,76,0,76,,,,None,None,,,,,,,,,,,,,76,0,76,0,1290.195784999989,,,,,,,,,,,,,,,,clips/clip_wurst_19_sub_0.mp4,audios/clip_wurst_19_sub_0.mp3,audiovisual,[],None,None,,,,,,119,A,2026-04-04_21h02.32.580,exp_sofc_final,,2026.1.2,59.247462439450665,2026-04-04 21h02.35.391610 +0200,
,77,0,77,,,,None,None,,,,,,,,,,,,,77,0,77,0,1302.240961600095,,,,,,,,,,,,,,,,clips/clip_lied_21_nosub_2.mp4,audios/clip_lied_21_nosub_2.mp3,audiovisual,"[5.402654699981213, 10.46349720004946]",None,None,,,,,,119,A,2026-04-04_21h02.32.580,exp_sofc_final,,2026.1.2,59.247462439450665,2026-04-04 21h02.35.391610 +0200,
,78,0,78,,,,None,None,,,,,,,,,,,,,78,0,78,0,1314.4387103002518,,,,,,,,,,,,,,,,clips/clip_holo_09_sub_2.mp4,audios/silence.mp3,visual,[],None,None,,,,,,119,A,2026-04-04_21h02.32.580,exp_sofc_final,,2026.1.2,59.247462439450665,2026-04-04 21h02.35.391610 +0200,
,79,0,79,,,,None,None,,,,,,,,,,,,,79,0,79,0,1326.7726258998737,,,,,,,,,,,,,,,,clips/clip_lied_01_sub_1.mp4,audios/silence.mp3,visual,[5.361223199870437],None,None,,,,,,119,A,2026-04-04_21h02.32.580,exp_sofc_final,,2026.1.2,59.247462439450665,2026-04-04 21h02.35.391610 +0200,
,80,0,80,,,,None,None,,,,,,,,,,,,,80,0,80,0,1337.7668518000282,,,,,,,,,,,,,,,,clips/clip_weißt_25_nosub_1.mp4,audios/clip_weißt_25_nosub_1.mp3,audiovisual,[5.081141300033778],None,None,,,,,,119,A,2026-04-04_21h02.32.580,exp_sofc_final,,2026.1.2,59.247462439450665,2026-04-04 21h02.35.391610 +0200,
,81,0,81,,,,None,None,,,,,,,,,,,,,81,0,81,0,1350.6003812002018,,,,,,,,,,,,,,,,clips/clip_holo_27_sub_1.mp4,audios/clip_holo_27_sub_1.mp3,audiovisual,"[1.8936668001115322, 5.829107400029898]",None,None,,,,,,119,A,2026-04-04_21h02.32.580,exp_sofc_final,,2026.1.2,59.247462439450665,2026-04-04 21h02.35.391610 +0200,
,82,0,82,,,,None,None,,,,,,,,,,,,,82,0,82,0,1361.5105388998054,,,,,,,,,,,,,,,,clips/clip_weißt_29_nosub_1.mp4,audios/clip_weißt_29_nosub_1.mp3,audiovisual,[6.7885252996347845],None,None,,,,,,119,A,2026-04-04_21h02.32.580,exp_sofc_final,,2026.1.2,59.247462439450665,2026-04-04 21h02.35.391610 +0200,
,83,0,83,,,,None,None,,,,,,,,,,,,,83,0,83,0,1373.905584400054,,,,,,,,,,,,,,,,clips/clip_wurst_31_sub_1.mp4,audios/clip_wurst_31_sub_1.mp3,audiovisual,[],None,None,,,,,,119,A,2026-04-04_21h02.32.580,exp_sofc_final,,2026.1.2,59.247462439450665,2026-04-04 21h02.35.391610 +0200,
,84,0,84,,,,None,None,,,,,,,,,,,,,84,0,84,0,1386.1521274000406,,,,,,,,,,,,,,,,clips/clip_claude_22_nosub_2.mp4,audios/silence.mp3,visual,[8.121033899951726],None,None,,,,,,119,A,2026-04-04_21h02.32.580,exp_sofc_final,,2026.1.2,59.247462439450665,2026-04-04 21h02.35.391610 +0200,
,85,0,85,,,,None,None,,,,,,,,,,,,,85,0,85,0,1397.9312089998275,,,,,,,,,,,,,,,,clips/clip_wurst_23_sub_2.mp4,audios/clip_wurst_23_sub_2.mp3,audiovisual,"[3.8882042998448014, 8.227653900161386]",None,None,,,,,,119,A,2026-04-04_21h02.32.580,exp_sofc_final,,2026.1.2,59.247462439450665,2026-04-04 21h02.35.391610 +0200,
,86,0,86,,,,None,None,,,,,,,,,,,,,86,0,86,0,1409.212382900063,,,,,,,,,,,,,,,,clips/clip_weißt_04_sub_0.mp4,audios/silence.mp3,visual,[],None,None,,,,,,119,A,2026-04-04_21h02.32.580,exp_sofc_final,,2026.1.2,59.247462439450665,2026-04-04 21h02.35.391610 +0200,
,87,0,87,,,,None,None,,,,,,,,,,,,,87,0,87,0,1420.5250491001643,,,,,,,,,,,,,,,,clips/clip_weißt_02_nosub_0.mp4,audios/silence.mp3,visual,[],None,None,,,,,,119,A,2026-04-04_21h02.32.580,exp_sofc_final,,2026.1.2,59.247462439450665,2026-04-04 21h02.35.391610 +0200,
,88,0,88,,,,None,None,,,,,,,,,,,,,88,0,88,0,1431.0197088001296,,,,,,,,,,,,,,,,clips/clip_lied_07_nosub_1.mp4,audios/silence.mp3,visual,[4.578968599904329],None,None,,,,,,119,A,2026-04-04_21h02.32.580,exp_sofc_final,,2026.1.2,59.247462439450665,2026-04-04 21h02.35.391610 +0200,
,89,0,89,,,,None,None,,,,,,,,,,,,,89,0,89,0,1440.9906494999304,,,,,,,,,,,,,,,,clips/clip_wurst_11_sub_0.mp4,audios/clip_wurst_11_sub_0.mp3,audiovisual,[],None,None,,,,,,119,A,2026-04-04_21h02.32.580,exp_sofc_final,,2026.1.2,59.247462439450665,2026-04-04 21h02.35.391610 +0200,
,90,0,90,,,,None,None,,,,,,,,,,,,,90,0,90,0,1453.7940437002108,,,,,,,,,,,,,,,,clips/clip_hund_32_sub_1.mp4,audios/silence.mp3,visual,[4.978145800065249],None,None,,,,,,119,A,2026-04-04_21h02.32.580,exp_sofc_final,,2026.1.2,59.247462439450665,2026-04-04 21h02.35.391610 +0200,
,91,0,91,,,,None,None,,,,,,,,,,,,,91,0,91,0,1464.6728612999432,,,,,,,,,,,,,,,,clips/clip_hund_07_nosub_1.mp4,audios/clip_hund_07_nosub_1.mp3,audiovisual,[6.952869799919426],None,None,,,,,,119,A,2026-04-04_21h02.32.580,exp_sofc_final,,2026.1.2,59.247462439450665,2026-04-04 21h02.35.391610 +0200,
,92,0,92,,,,None,None,,,,,,,,,,,,,92,0,92,0,1477.118416099809,,,,,,,,,,,,,,,,clips/clip_claude_09_sub_2.mp4,audios/clip_claude_09_sub_2.mp3,audiovisual,[4.095695399679244],None,None,,,,,,119,A,2026-04-04_21h02.32.580,exp_sofc_final,,2026.1.2,59.247462439450665,2026-04-04 21h02.35.391610 +0200,
,93,0,93,,,,None,None,,,,,,,,,,,,,93,0,93,0,1488.2137000001967,,,,,,,,,,,,,,,,clips/clip_claude_27_nosub_0.mp4,audios/clip_claude_27_nosub_0.mp3,audiovisual,[],None,None,,,,,,119,A,2026-04-04_21h02.32.580,exp_sofc_final,,2026.1.2,59.247462439450665,2026-04-04 21h02.35.391610 +0200,
,94,0,94,,,,None,None,,,,,,,,,,,,,94,0,94,0,1500.9815917001106,,,,,,,,,,,,,,,,clips/clip_wurst_12_nosub_0.mp4,audios/silence.mp3,visual,[],None,None,,,,,,119,A,2026-04-04_21h02.32.580,exp_sofc_final,,2026.1.2,59.247462439450665,2026-04-04 21h02.35.391610 +0200,
,95,0,95,,,,1,None,8.883406499866396,None,,,,,,,,,,,95,0,95,0,1510.464686000254,,,,,,,,,,,,,,,,clips/clip_hund_03_sub_1.mp4,audios/silence.mp3,visual,[7.081197100225836],1,None,1,8.883406499866396,None,,,119,A,2026-04-04_21h02.32.580,exp_sofc_final,,2026.1.2,59.247462439450665,2026-04-04 21h02.35.391610 +0200,
,96,0,96,,,,None,None,,,,,,,,,,,,,96,0,96,0,1532.2621559998952,,,,,,,,,,,,,,,,clips/clip_claude_26_nosub_0.mp4,audios/silence.mp3,visual,[],None,None,,,,,,119,A,2026-04-04_21h02.32.580,exp_sofc_final,,2026.1.2,59.247462439450665,2026-04-04 21h02.35.391610 +0200,
,97,0,97,,,,None,None,,,,,,,,,,,,,97,0,97,0,1543.9708143002354,,,,,,,,,,,,,,,,clips/clip_herz_06_sub_2.mp4,audios/silence.mp3,visual,"[5.114704099949449, 8.481303999666125]",None,None,,,,,,119,A,2026-04-04_21h02.32.580,exp_sofc_final,,2026.1.2,59.247462439450665,2026-04-04 21h02.35.391610 +0200,
,98,0,98,,,,None,None,,,,,,,,,,,,,98,0,98,0,1555.4658750002272,,,,,,,,,,,,,,,,clips/clip_dampf_05_sub_2.mp4,audios/clip_dampf_05_sub_2.mp3,audiovisual,"[3.5222486997954547, 9.30805870005861]",None,None,,,,,,119,A,2026-04-04_21h02.32.580,exp_sofc_final,,2026.1.2,59.247462439450665,2026-04-04 21h02.35.391610 +0200,
,99,0,99,,,,None,None,,,,,,,,,,,,,99,0,99,0,1564.9875630000606,,,,,,,,,,,,,,,,clips/clip_lied_19_sub_1.mp4,audios/clip_lied_19_sub_1.mp3,audiovisual,[5.875443399883807],None,None,,,,,,119,A,2026-04-04_21h02.32.580,exp_sofc_final,,2026.1.2,59.247462439450665,2026-04-04 21h02.35.391610 +0200,
,100,0,100,,,,None,None,,,,,,,,,,,,,100,0,100,0,1576.5364159001037,,,,,,,,,,,,,,,,clips/clip_lied_17_nosub_2.mp4,audios/clip_lied_17_nosub_2.mp3,audiovisual,[8.435414399951696],None,None,,,,,,119,A,2026-04-04_21h02.32.580,exp_sofc_final,,2026.1.2,59.247462439450665,2026-04-04 21h02.35.391610 +0200,
,101,0,101,,,,None,None,,,,,,,,,,,,,101,0,101,0,1587.3992934999987,,,,,,,,,,,,,,,,clips/clip_claude_01_sub_2.mp4,audios/clip_claude_01_sub_2.mp3,audiovisual,"[7.000919700134546, 9.111125499941409]",None,None,,,,,,119,A,2026-04-04_21h02.32.580,exp_sofc_final,,2026.1.2,59.247462439450665,2026-04-04 21h02.35.391610 +0200,
,102,0,102,,,,None,None,,,,,,,,,,,,,102,0,102,0,1599.2630382999778,,,,,,,,,,,,,,,,clips/clip_lied_20_nosub_2.mp4,audios/silence.mp3,visual,"[3.845904600340873, 8.206221300177276]",None,None,,,,,,119,A,2026-04-04_21h02.32.580,exp_sofc_final,,2026.1.2,59.247462439450665,2026-04-04 21h02.35.391610 +0200,
,103,0,103,,,,None,None,,,,,,,,,,,,,103,0,103,0,1610.7868312001228,,,,,,,,,,,,,,,,clips/clip_hund_14_nosub_2.mp4,audios/silence.mp3,visual,[6.046521800104529],None,None,,,,,,119,A,2026-04-04_21h02.32.580,exp_sofc_final,,2026.1.2,59.247462439450665,2026-04-04 21h02.35.391610 +0200,
,104,0,104,,,,None,None,,,,,,,,,,,,,104,0,104,0,1621.611931500025,,,,,,,,,,,,,,,,clips/clip_holo_01_sub_1.mp4,audios/silence.mp3,visual,[4.1978448000736535],None,None,,,,,,119,A,2026-04-04_21h02.32.580,exp_sofc_final,,2026.1.2,59.247462439450665,2026-04-04 21h02.35.391610 +0200,
,105,0,105,,,,None,None,,,,,,,,,,,,,105,0,105,0,1631.6573956999928,,,,,,,,,,,,,,,,clips/clip_hund_15_nosub_1.mp4,audios/clip_hund_15_nosub_1.mp3,audiovisual,"[1.1041725999675691, 7.059167699888349]",None,None,,,,,,119,A,2026-04-04_21h02.32.580,exp_sofc_final,,2026.1.2,59.247462439450665,2026-04-04 21h02.35.391610 +0200,
,106,0,106,,,,None,None,,,,,,,,,,,,,106,0,106,0,1642.8912492999807,,,,,,,,,,,,,,,,clips/clip_weißt_26_sub_1.mp4,audios/silence.mp3,visual,[9.728777599986643],None,None,,,,,,119,A,2026-04-04_21h02.32.580,exp_sofc_final,,2026.1.2,59.247462439450665,2026-04-04 21h02.35.391610 +0200,
,107,0,107,,,,None,None,,,,,,,,,,,,,107,0,107,0,1653.9869948001578,,,,,,,,,,,,,,,,clips/clip_holo_05_sub_2.mp4,audios/silence.mp3,visual,[7.261188299860805],None,None,,,,,,119,A,2026-04-04_21h02.32.580,exp_sofc_final,,2026.1.2,59.247462439450665,2026-04-04 21h02.35.391610 +0200,
,108,0,108,,,,None,None,,,,,,,,,,,,,108,0,108,0,1664.06599189993,,,,,,,,,,,,,,,,clips/clip_lied_11_nosub_1.mp4,audios/silence.mp3,visual,[8.387592799961567],None,None,,,,,,119,A,2026-04-04_21h02.32.580,exp_sofc_final,,2026.1.2,59.247462439450665,2026-04-04 21h02.35.391610 +0200,
,109,0,109,,,,None,None,,,,,,,,,,,,,109,0,109,0,1675.978519400116,,,,,,,,,,,,,,,,clips/clip_wurst_27_sub_1.mp4,audios/clip_wurst_27_sub_1.mp3,audiovisual,[6.087087200023234],None,None,,,,,,119,A,2026-04-04_21h02.32.580,exp_sofc_final,,2026.1.2,59.247462439450665,2026-04-04 21h02.35.391610 +0200,
,110,0,110,,,,None,None,,,,,,,,,,,,,110,0,110,0,1686.9579105000012,,,,,,,,,,,,,,,,clips/clip_weißt_13_nosub_0.mp4,audios/silence.mp3,visual,[],None,None,,,,,,119,A,2026-04-04_21h02.32.580,exp_sofc_final,,2026.1.2,59.247462439450665,2026-04-04 21h02.35.391610 +0200,
,111,0,111,,,,None,None,,,,,,,,,,,,,111,0,111,0,1698.698148699943,,,,,,,,,,,,,,,,clips/clip_herz_09_nosub_0.mp4,audios/clip_herz_09_nosub_0.mp3,audiovisual,[],None,None,,,,,,119,A,2026-04-04_21h02.32.580,exp_sofc_final,,2026.1.2,59.247462439450665,2026-04-04 21h02.35.391610 +0200,
,112,0,112,,,,None,None,,,,,,,,,,,,,112,0,112,0,1711.0779452999122,,,,,,,,,,,,,,,,clips/clip_holo_07_nosub_0.mp4,audios/silence.mp3,visual,[],None,None,,,,,,119,A,2026-04-04_21h02.32.580,exp_sofc_final,,2026.1.2,59.247462439450665,2026-04-04 21h02.35.391610 +0200,
,113,0,113,,,,4,None,5.913122300058603,None,,,,,,,,,,,113,0,113,0,1721.4655861002393,,,,,,,,,,,,,,,,clips/clip_hund_22_nosub_1.mp4,audios/silence.mp3,visual,[8.843585500027984],4,None,4,5.913122300058603,None,,,119,A,2026-04-04_21h02.32.580,exp_sofc_final,,2026.1.2,59.247462439450665,2026-04-04 21h02.35.391610 +0200,
,114,0,114,,,,None,None,,,,,,,,,,,,,114,0,114,0,1738.301302799955,,,,,,,,,,,,,,,,clips/clip_wurst_21_nosub_0.mp4,audios/clip_wurst_21_nosub_0.mp3,audiovisual,[],None,None,,,,,,119,A,2026-04-04_21h02.32.580,exp_sofc_final,,2026.1.2,59.247462439450665,2026-04-04 21h02.35.391610 +0200,
,115,0,115,,,,None,None,,,,,,,,,,,,,115,0,115,0,1749.706608899869,,,,,,,,,,,,,,,,clips/clip_holo_08_nosub_2.mp4,audios/clip_holo_08_nosub_2.mp3,audiovisual,"[4.757266599684954, 9.739737699739635]",None,None,,,,,,119,A,2026-04-04_21h02.32.580,exp_sofc_final,,2026.1.2,59.247462439450665,2026-04-04 21h02.35.391610 +0200,
,116,0,116,,,,4,None,9.786526900250465,None,,,,,,,,,,,116,0,116,0,1761.3278824998997,,,,,,,,,,,,,,,,clips/clip_hund_13_sub_1.mp4,audios/clip_hund_13_sub_1.mp3,audiovisual,[5.895779199898243],4,None,4,9.786526900250465,None,,,119,A,2026-04-04_21h02.32.580,exp_sofc_final,,2026.1.2,59.247462439450665,2026-04-04 21h02.35.391610 +0200,
,117,0,117,,,,None,None,,,,,,,,,,,,,117,0,117,0,1783.9282945999876,,,,,,,,,,,,,,,,clips/clip_lied_05_sub_0.mp4,audios/silence.mp3,visual,[],None,None,,,,,,119,A,2026-04-04_21h02.32.580,exp_sofc_final,,2026.1.2,59.247462439450665,2026-04-04 21h02.35.391610 +0200,
,118,0,118,,,,None,None,,,,,,,,,,,,,118,0,118,0,1794.1838346002623,,,,,,,,,,,,,,,,clips/clip_wurst_06_sub_2.mp4,audios/clip_wurst_06_sub_2.mp3,audiovisual,"[2.6195938996970654, 8.4316982999444]",None,None,,,,,,119,A,2026-04-04_21h02.32.580,exp_sofc_final,,2026.1.2,59.247462439450665,2026-04-04 21h02.35.391610 +0200,
,119,0,119,,,,1,space,7.1786964000202715,None,5.3141598999500275,None,,,,,,,,,119,0,119,0,1806.1574711999856,,,,,,,,,,,,,,,,clips/clip_wurst_04_nosub_2.mp4,audios/clip_wurst_04_nosub_2.mp3,audiovisual,"[4.48026889981702, 7.660184700042009]",1,space,1,7.1786964000202715,None,5.3141598999500275,None,119,A,2026-04-04_21h02.32.580,exp_sofc_final,,2026.1.2,59.247462439450665,2026-04-04 21h02.35.391610 +0200,
,120,0,120,,,,None,None,,,,,,,,,,,,,120,0,120,0,1831.1178847001866,,,,,,,,,,,,,,,,clips/clip_hund_16_sub_1.mp4,audios/silence.mp3,visual,[],None,None,,,,,,119,A,2026-04-04_21h02.32.580,exp_sofc_final,,2026.1.2,59.247462439450665,2026-04-04 21h02.35.391610 +0200,
,121,0,121,,,,None,None,,,,,,,,,,,,,121,0,121,0,1842.946595299989,,,,,,,,,,,,,,,,clips/clip_wurst_15_sub_2.mp4,audios/clip_wurst_15_sub_2.mp3,audiovisual,[5.687918100040406],None,None,,,,,,119,A,2026-04-04_21h02.32.580,exp_sofc_final,,2026.1.2,59.247462439450665,2026-04-04 21h02.35.391610 +0200,
,122,0,122,,,,None,None,,,,,,,,,,,,,122,0,122,0,1853.219048100058,,,,,,,,,,,,,,,,clips/clip_wurst_34_sub_2.mp4,audios/silence.mp3,visual,"[5.454038700088859, 7.500827500130981]",None,None,,,,,,119,A,2026-04-04_21h02.32.580,exp_sofc_final,,2026.1.2,59.247462439450665,2026-04-04 21h02.35.391610 +0200,
,123,0,123,,,,None,None,,,,,,,,,,,,,123,0,123,0,1862.620312700048,,,,,,,,,,,,,,,,clips/clip_holo_13_sub_1.mp4,audios/silence.mp3,visual,[4.678097699768841],None,None,,,,,,119,A,2026-04-04_21h02.32.580,exp_sofc_final,,2026.1.2,59.247462439450665,2026-04-04 21h02.35.391610 +0200,
,124,0,124,,,,None,None,,,,,,,,,,,,,124,0,124,0,1875.2782646999694,,,,,,,,,,,,,,,,clips/clip_weißt_07_nosub_1.mp4,audios/silence.mp3,visual,[3.9426924996078014],None,None,,,,,,119,A,2026-04-04_21h02.32.580,exp_sofc_final,,2026.1.2,59.247462439450665,2026-04-04 21h02.35.391610 +0200,
,125,0,125,,,,None,None,,,,,,,,,,,,,125,0,125,0,1885.8395135998726,,,,,,,,,,,,,,,,clips/clip_dampf_03_nosub_1.mp4,audios/clip_dampf_03_nosub_1.mp3,audiovisual,"[3.952834099996835, 8.035847899969667]",None,None,,,,,,119,A,2026-04-04_21h02.32.580,exp_sofc_final,,2026.1.2,59.247462439450665,2026-04-04 21h02.35.391610 +0200,
,126,0,126,,,,2,None,7.154220399912447,None,,,,,,,,,,,126,0,126,0,1894.3605382000096,,,,,,,,,,,,,,,,clips/clip_hund_20_sub_0.mp4,audios/silence.mp3,visual,[],2,None,2,7.154220399912447,None,,,119,A,2026-04-04_21h02.32.580,exp_sofc_final,,2026.1.2,59.247462439450665,2026-04-04 21h02.35.391610 +0200,
,127,0,127,,,,None,None,,,,,,,,,,,,,127,0,127,0,1914.1158258002251,,,,,,,,,,,,,,,,clips/clip_hund_21_sub_1.mp4,audios/clip_hund_21_sub_1.mp3,audiovisual,[8.039276400115341],None,None,,,,,,119,A,2026-04-04_21h02.32.580,exp_sofc_final,,2026.1.2,59.247462439450665,2026-04-04 21h02.35.391610 +0200,
,128,0,128,,,,None,None,,,,,,,,,,,,,128,0,128,0,1924.9586630002595,,,,,,,,,,,,,,,,clips/clip_herz_05_nosub_0.mp4,audios/clip_herz_05_nosub_0.mp3,audiovisual,[6.102345800027251],None,None,,,,,,119,A,2026-04-04_21h02.32.580,exp_sofc_final,,2026.1.2,59.247462439450665,2026-04-04 21h02.35.391610 +0200,
,129,0,129,,,,None,None,,,,,,,,,,,,,129,0,129,0,1936.154420199804,,,,,,,,,,,,,,,,clips/clip_claude_08_sub_0.mp4,audios/silence.mp3,visual,[],None,None,,,,,,119,A,2026-04-04_21h02.32.580,exp_sofc_final,,2026.1.2,59.247462439450665,2026-04-04 21h02.35.391610 +0200,
,130,0,130,,,,None,None,,,,,,,,,,,,,130,0,130,0,1946.6716046002693,,,,,,,,,,,,,,,,clips/clip_claude_17_sub_1.mp4,audios/clip_claude_17_sub_1.mp3,audiovisual,[10.60306980041787],None,None,,,,,,119,A,2026-04-04_21h02.32.580,exp_sofc_final,,2026.1.2,59.247462439450665,2026-04-04 21h02.35.391610 +0200,
,131,0,131,,,,None,None,,,,,,,,,,,,,131,0,131,0,1959.1140756001696,,,,,,,,,,,,,,,,clips/clip_claude_15_nosub_0.mp4,audios/clip_claude_15_nosub_0.mp3,audiovisual,[],None,None,,,,,,119,A,2026-04-04_21h02.32.580,exp_sofc_final,,2026.1.2,59.247462439450665,2026-04-04 21h02.35.391610 +0200,
,132,0,132,,,,None,None,,,,,,,,,,,,,132,0,132,0,1971.9293062998913,,,,,,,,,,,,,,,,clips/clip_hund_05_nosub_0.mp4,audios/silence.mp3,visual,[],None,None,,,,,,119,A,2026-04-04_21h02.32.580,exp_sofc_final,,2026.1.2,59.247462439450665,2026-04-04 21h02.35.391610 +0200,
,133,0,133,,,,None,None,,,,,,,,,,,,,133,0,133,0,1983.8968372000381,,,,,,,,,,,,,,,,clips/clip_lied_15_sub_2.mp4,audios/clip_lied_15_sub_2.mp3,audiovisual,[6.654321199748665],None,None,,,,,,119,A,2026-04-04_21h02.32.580,exp_sofc_final,,2026.1.2,59.247462439450665,2026-04-04 21h02.35.391610 +0200,
,134,0,134,,,,2,None,8.76471020001918,None,,,,,,,,,,,134,0,134,0,1992.4015979999676,,,,,,,,,,,,,,,,clips/clip_wurst_01_sub_0.mp4,audios/clip_wurst_01_sub_0.mp3,audiovisual,[],2,None,2,8.76471020001918,None,,,119,A,2026-04-04_21h02.32.580,exp_sofc_final,,2026.1.2,59.247462439450665,2026-04-04 21h02.35.391610 +0200,
,135,0,135,,,,None,None,,,,,,,,,,,,,135,0,135,0,2011.9383764998056,,,,,,,,,,,,,,,,clips/clip_weißt_22_sub_0.mp4,audios/clip_weißt_22_sub_0.mp3,audiovisual,[],None,None,,,,,,119,A,2026-04-04_21h02.32.580,exp_sofc_final,,2026.1.2,59.247462439450665,2026-04-04 21h02.35.391610 +0200,
,136,0,136,,,,None,None,,,,,,,,,,,,,136,0,136,0,2023.8284916998819,,,,,,,,,,,,,,,,clips/clip_wurst_16_nosub_0.mp4,audios/silence.mp3,visual,[],None,None,,,,,,119,A,2026-04-04_21h02.32.580,exp_sofc_final,,2026.1.2,59.247462439450665,2026-04-04 21h02.35.391610 +0200,
,137,0,137,,,,None,None,,,,,,,,,,,,,137,0,137,0,2034.8128268998116,,,,,,,,,,,,,,,,clips/clip_lied_08_nosub_1.mp4,audios/clip_lied_08_nosub_1.mp3,audiovisual,[7.692444300279021],None,None,,,,,,119,A,2026-04-04_21h02.32.580,exp_sofc_final,,2026.1.2,59.247462439450665,2026-04-04 21h02.35.391610 +0200,
,138,0,138,,,,None,None,,,,,,,,,,,,,138,0,138,0,2044.7729027001187,,,,,,,,,,,,,,,,clips/clip_wurst_35_sub_0.mp4,audios/clip_wurst_35_sub_0.mp3,audiovisual,[],None,None,,,,,,119,A,2026-04-04_21h02.32.580,exp_sofc_final,,2026.1.2,59.247462439450665,2026-04-04 21h02.35.391610 +0200,
,139,0,139,,,,1,None,10.947198000270873,None,,,,,,,,,,,139,0,139,0,2054.9015962998383,,,,,,,,,,,,,,,,clips/clip_herz_13_nosub_0.mp4,audios/clip_herz_13_nosub_0.mp3,audiovisual,[7.798291400074959],1,None,1,10.947198000270873,None,,,119,A,2026-04-04_21h02.32.580,exp_sofc_final,,2026.1.2,59.247462439450665,2026-04-04 21h02.35.391610 +0200,
,140,0,140,,,,None,None,,,,,,,,,,,,,140,0,140,0,2077.9029954001307,,,,,,,,,,,,,,,,clips/clip_lied_03_nosub_1.mp4,audios/silence.mp3,visual,[4.833776399958879],None,None,,,,,,119,A,2026-04-04_21h02.32.580,exp_sofc_final,,2026.1.2,59.247462439450665,2026-04-04 21h02.35.391610 +0200,
,141,0,141,,,,None,None,,,,,,,,,,,,,141,0,141,0,2089.2589508001693,,,,,,,,,,,,,,,,clips/clip_herz_11_sub_0.mp4,audios/clip_herz_11_sub_0.mp3,audiovisual,"[1.6693455995991826, 5.2419325998052955]",None,None,,,,,,119,A,2026-04-04_21h02.32.580,exp_sofc_final,,2026.1.2,59.247462439450665,2026-04-04 21h02.35.391610 +0200,
,142,0,142,,,,None,None,,,,,,,,,,,,,142,0,142,0,2099.3600328001194,,,,,,,,,,,,,,,,clips/clip_holo_10_sub_1.mp4,audios/clip_holo_10_sub_1.mp3,audiovisual,[6.1848424999043345],None,None,,,,,,119,A,2026-04-04_21h02.32.580,exp_sofc_final,,2026.1.2,59.247462439450665,2026-04-04 21h02.35.391610 +0200,
,143,0,143,,,,None,None,,,,,,,,,,,,,143,0,143,0,2110.1268159002066,,,,,,,,,,,,,,,,clips/clip_weißt_20_sub_1.mp4,audios/silence.mp3,visual,[8.098474000114948],None,None,,,,,,119,A,2026-04-04_21h02.32.580,exp_sofc_final,,2026.1.2,59.247462439450665,2026-04-04 21h02.35.391610 +0200,
,144,0,144,,,,None,None,,,,,,,,,,,,,144,0,144,0,2120.7573530999944,,,,,,,,,,,,,,,,clips/clip_wurst_07_nosub_0.mp4,audios/silence.mp3,visual,[],None,None,,,,,,119,A,2026-04-04_21h02.32.580,exp_sofc_final,,2026.1.2,59.247462439450665,2026-04-04 21h02.35.391610 +0200,
,145,0,145,,,,None,None,,,,,,,,,,,,,145,0,145,0,2131.6664809999056,,,,,,,,,,,,,,,,clips/clip_wurst_18_sub_0.mp4,audios/silence.mp3,visual,[],None,None,,,,,,119,A,2026-04-04_21h02.32.580,exp_sofc_final,,2026.1.2,59.247462439450665,2026-04-04 21h02.35.391610 +0200,
,146,0,146,,,,None,None,,,,,,,,,,,,,146,0,146,0,2142.5403905999847,,,,,,,,,,,,,,,,clips/clip_hund_29_nosub_0.mp4,audios/silence.mp3,visual,[10.640420099720359],None,None,,,,,,119,A,2026-04-04_21h02.32.580,exp_sofc_final,,2026.1.2,59.247462439450665,2026-04-04 21h02.35.391610 +0200,
,147,0,147,,,,None,None,,,,,,,,,,,,,147,0,147,0,2155.033497299999,,,,,,,,,,,,,,,,clips/clip_weißt_06_sub_0.mp4,audios/clip_weißt_06_sub_0.mp3,audiovisual,[8.007069799583405],None,None,,,,,,119,A,2026-04-04_21h02.32.580,exp_sofc_final,,2026.1.2,59.247462439450665,2026-04-04 21h02.35.391610 +0200,
,148,0,148,,,,None,None,,,,,,,,,,,,,148,0,148,0,2166.3413435001858,,,,,,,,,,,,,,,,clips/clip_weißt_19_nosub_1.mp4,audios/clip_weißt_19_nosub_1.mp3,audiovisual,[],None,None,,,,,,119,A,2026-04-04_21h02.32.580,exp_sofc_final,,2026.1.2,59.247462439450665,2026-04-04 21h02.35.391610 +0200,
,149,0,149,,,,None,None,,,,,,,,,,,,,149,0,149,0,2177.2552423998713,,,,,,,,,,,,,,,,clips/clip_claude_21_sub_1.mp4,audios/clip_claude_21_sub_1.mp3,audiovisual,[9.827371999621391],None,None,,,,,,119,A,2026-04-04_21h02.32.580,exp_sofc_final,,2026.1.2,59.247462439450665,2026-04-04 21h02.35.391610 +0200,
,150,0,150,,,,None,None,,,,,,,,,,,,,150,0,150,0,2190.344755699858,,,,,,,,,,,,,,,,clips/clip_herz_02_sub_0.mp4,audios/silence.mp3,visual,[9.304681799840182],None,None,,,,,,119,A,2026-04-04_21h02.32.580,exp_sofc_final,,2026.1.2,59.247462439450665,2026-04-04 21h02.35.391610 +0200,
,151,0,151,,,,None,None,,,,,,,,,,,,,151,0,151,0,2203.7653470002115,,,,,,,,,,,,,,,,clips/clip_lied_09_sub_1.mp4,audios/silence.mp3,visual,[],None,None,,,,,,119,A,2026-04-04_21h02.32.580,exp_sofc_final,,2026.1.2,59.247462439450665,2026-04-04 21h02.35.391610 +0200,
,152,0,152,,,,None,None,,,,,,,,,,,,,152,0,152,0,2215.1219239002094,,,,,,,,,,,,,,,,clips/clip_weißt_16_sub_0.mp4,audios/clip_weißt_16_sub_0.mp3,audiovisual,[],None,None,,,,,,119,A,2026-04-04_21h02.32.580,exp_sofc_final,,2026.1.2,59.247462439450665,2026-04-04 21h02.35.391610 +0200,
,153,0,153,,,,4,None,5.494431100320071,None,,,,,,,,,,,153,0,153,0,2226.4191715000197,,,,,,,,,,,,,,,,clips/clip_herz_16_nosub_0.mp4,audios/silence.mp3,visual,[],4,None,4,5.494431100320071,None,,,119,A,2026-04-04_21h02.32.580,exp_sofc_final,,2026.1.2,59.247462439450665,2026-04-04 21h02.35.391610 +0200,
,154,0,154,,,,None,None,,,,,,,,,,,,,154,0,154,0,2241.9241038002074,,,,,,,,,,,,,,,,clips/clip_herz_12_nosub_0.mp4,audios/silence.mp3,visual,[],None,None,,,,,,119,A,2026-04-04_21h02.32.580,exp_sofc_final,,2026.1.2,59.247462439450665,2026-04-04 21h02.35.391610 +0200,
,155,0,155,,,,None,None,,,,,,,,,,,,,155,0,155,0,2251.907099300064,,,,,,,,,,,,,,,,clips/clip_wurst_25_nosub_1.mp4,audios/clip_wurst_25_nosub_1.mp3,audiovisual,[],None,None,,,,,,119,A,2026-04-04_21h02.32.580,exp_sofc_final,,2026.1.2,59.247462439450665,2026-04-04 21h02.35.391610 +0200,
,156,0,156,,,,None,None,,,,,,,,,,,,,156,0,156,0,2263.965538700111,,,,,,,,,,,,,,,,clips/clip_claude_16_sub_1.mp4,audios/silence.mp3,visual,[],None,None,,,,,,119,A,2026-04-04_21h02.32.580,exp_sofc_final,,2026.1.2,59.247462439450665,2026-04-04 21h02.35.391610 +0200,
,157,0,157,,,,3,None,4.896958600264043,None,,,,,,,,,,,157,0,157,0,2276.0092456000857,,,,,,,,,,,,,,,,clips/clip_holo_23_nosub_1.mp4,audios/silence.mp3,visual,[],3,None,3,4.896958600264043,None,,,119,A,2026-04-04_21h02.32.580,exp_sofc_final,,2026.1.2,59.247462439450665,2026-04-04 21h02.35.391610 +0200,
,158,0,158,,,,None,None,,,,,,,,,,,,,158,0,158,0,2291.9570893002674,,,,,,,,,,,,,,,,clips/clip_holo_14_sub_0.mp4,audios/clip_holo_14_sub_0.mp3,audiovisual,[],None,None,,,,,,119,A,2026-04-04_21h02.32.580,exp_sofc_final,,2026.1.2,59.247462439450665,2026-04-04 21h02.35.391610 +0200,
,159,0,159,,,,None,None,,,,,,,,,,,,,159,0,159,0,2302.6493273000233,,,,,,,,,,,,,,,,clips/clip_weißt_28_nosub_1.mp4,audios/silence.mp3,visual,"[2.2973763002082705, 7.115630600135773]",None,None,,,,,,119,A,2026-04-04_21h02.32.580,exp_sofc_final,,2026.1.2,59.247462439450665,2026-04-04 21h02.35.391610 +0200,
,160,0,160,,,,None,None,,,,,,,,,,,,,160,0,160,0,2313.6137438998558,,,,,,,,,,,,,,,,clips/clip_hund_09_sub_2.mp4,audios/clip_hund_09_sub_2.mp3,audiovisual,"[5.779161499813199, 10.555130599997938]",None,None,,,,,,119,A,2026-04-04_21h02.32.580,exp_sofc_final,,2026.1.2,59.247462439450665,2026-04-04 21h02.35.391610 +0200,
,161,0,161,,,,None,None,,,,,,,,,,,,,161,0,161,0,2325.9995602001436,,,,,,,,,,,,,,,,clips/clip_herz_17_nosub_0.mp4,audios/clip_herz_17_nosub_0.mp3,audiovisual,[5.773504000157118],None,None,,,,,,119,A,2026-04-04_21h02.32.580,exp_sofc_final,,2026.1.2,59.247462439450665,2026-04-04 21h02.35.391610 +0200,
,162,0,162,,,,None,None,,,,,,,,,,,,,162,0,162,0,2335.0468851001933,,,,,,,,,,,,,,,,clips/clip_lied_12_nosub_0.mp4,audios/clip_lied_12_nosub_0.mp3,audiovisual,[],None,None,,,,,,119,A,2026-04-04_21h02.32.580,exp_sofc_final,,2026.1.2,59.247462439450665,2026-04-04 21h02.35.391610 +0200,
,163,0,163,,,,2,None,12.072945700027049,None,,,,,,,,,,,163,0,163,0,2344.872026800178,,,,,,,,,,,,,,,,clips/clip_lied_16_nosub_2.mp4,audios/silence.mp3,visual,"[4.259049799758941, 8.968667099718004]",2,None,1,12.072945700027049,None,,,119,A,2026-04-04_21h02.32.580,exp_sofc_final,,2026.1.2,59.247462439450665,2026-04-04 21h02.35.391610 +0200,
,164,0,164,,,,None,None,,,,,,,,,,,,,164,0,164,0,2368.391877700109,,,,,,,,,,,,,,,,clips/clip_herz_04_nosub_0.mp4,audios/silence.mp3,visual,[7.961698099970818],None,None,,,,,,119,A,2026-04-04_21h02.32.580,exp_sofc_final,,2026.1.2,59.247462439450665,2026-04-04 21h02.35.391610 +0200,
,165,0,165,,,,None,None,,,,,,,,,,,,,165,0,165,0,2380.273833400104,,,,,,,,,,,,,,,,clips/clip_claude_10_nosub_0.mp4,audios/silence.mp3,visual,[],None,None,,,,,,119,A,2026-04-04_21h02.32.580,exp_sofc_final,,2026.1.2,59.247462439450665,2026-04-04 21h02.35.391610 +0200,
,166,0,166,,,,None,None,,,,,,,,,,,,,166,0,166,0,2392.2835417999886,,,,,,,,,,,,,,,,clips/clip_wurst_20_nosub_0.mp4,audios/silence.mp3,visual,[],None,None,,,,,,119,A,2026-04-04_21h02.32.580,exp_sofc_final,,2026.1.2,59.247462439450665,2026-04-04 21h02.35.391610 +0200,
,167,0,167,,,,None,None,,,,,,,,,,,,,167,0,167,0,2403.168801799882,,,,,,,,,,,,,,,,clips/clip_holo_02_sub_2.mp4,audios/clip_holo_02_sub_2.mp3,audiovisual,[8.261777999810874],None,None,,,,,,119,A,2026-04-04_21h02.32.580,exp_sofc_final,,2026.1.2,59.247462439450665,2026-04-04 21h02.35.391610 +0200,
,168,0,168,,,,None,None,,,,,,,,,,,,,168,0,168,0,2415.1528996000998,,,,,,,,,,,,,,,,clips/clip_wurst_26_sub_1.mp4,audios/silence.mp3,visual,[11.88681080006063],None,None,,,,,,119,A,2026-04-04_21h02.32.580,exp_sofc_final,,2026.1.2,59.247462439450665,2026-04-04 21h02.35.391610 +0200,
,169,0,169,,,,None,None,,,,,,,,,,,,,169,0,169,0,2428.0249679000117,,,,,,,,,,,,,,,,clips/clip_wurst_14_sub_1.mp4,audios/silence.mp3,visual,[8.001814200077206],None,None,,,,,,119,A,2026-04-04_21h02.32.580,exp_sofc_final,,2026.1.2,59.247462439450665,2026-04-04 21h02.35.391610 +0200,
,170,0,170,,,,None,None,,,,,,,,,,,,,170,0,170,0,2438.8977389000356,,,,,,,,,,,,,,,,clips/clip_weißt_12_sub_1.mp4,audios/clip_weißt_12_sub_1.mp3,audiovisual,"[1.6885483996011317, 9.36938829999417]",None,None,,,,,,119,A,2026-04-04_21h02.32.580,exp_sofc_final,,2026.1.2,59.247462439450665,2026-04-04 21h02.35.391610 +0200,
,171,0,171,,,,None,None,,,,,,,,,,,,,171,0,171,0,2451.7018670002,,,,,,,,,,,,,,,,clips/clip_hund_23_nosub_1.mp4,audios/clip_hund_23_nosub_1.mp3,audiovisual,[],None,None,,,,,,119,A,2026-04-04_21h02.32.580,exp_sofc_final,,2026.1.2,59.247462439450665,2026-04-04 21h02.35.391610 +0200,
,172,0,172,,,,None,None,,,,,,,,,,,,,172,0,172,0,2463.366637399886,,,,,,,,,,,,,,,,clips/clip_hund_24_sub_1.mp4,audios/silence.mp3,visual,[8.182113300077617],None,None,,,,,,119,A,2026-04-04_21h02.32.580,exp_sofc_final,,2026.1.2,59.247462439450665,2026-04-04 21h02.35.391610 +0200,
,173,0,173,,,,4,None,11.113356599584222,None,,,,,,,,,,,173,0,173,0,2476.203350199852,,,,,,,,,,,,,,,,clips/clip_dampf_02_nosub_1.mp4,audios/silence.mp3,visual,[5.195003400091082],4,None,4,11.113356599584222,None,,,119,A,2026-04-04_21h02.32.580,exp_sofc_final,,2026.1.2,59.247462439450665,2026-04-04 21h02.35.391610 +0200,
,174,0,174,,,,2,None,7.456264199689031,None,,,,,,,,,,,174,0,174,0,2497.6964051001705,,,,,,,,,,,,,,,,clips/clip_holo_11_nosub_2.mp4,audios/silence.mp3,visual,"[5.637921100016683, 9.222008700016886]",2,None,4,7.456264199689031,None,,,119,A,2026-04-04_21h02.32.580,exp_sofc_final,,2026.1.2,59.247462439450665,2026-04-04 21h02.35.391610 +0200,
,175,0,175,,,,3,None,5.382108500227332,None,,,,,,,,,,,175,0,175,0,2515.73552729981,,,,,,,,,,,,,,,,clips/clip_hund_11_nosub_1.mp4,audios/clip_hund_11_nosub_1.mp3,audiovisual,[7.220860900357366],3,None,3,5.382108500227332,None,,,119,A,2026-04-04_21h02.32.580,exp_sofc_final,,2026.1.2,59.247462439450665,2026-04-04 21h02.35.391610 +0200,
,176,0,176,,,,4,None,7.3327358001843095,None,,,,,,,,,,,176,0,176,0,2531.7561551001854,,,,,,,,,,,,,,,,clips/clip_claude_23_nosub_0.mp4,audios/clip_claude_23_nosub_0.mp3,audiovisual,[],4,None,3,7.3327358001843095,None,,,119,A,2026-04-04_21h02.32.580,exp_sofc_final,,2026.1.2,59.247462439450665,2026-04-04 21h02.35.391610 +0200,
,177,0,177,,,,,,,,,,,,,,,,,,177,0,177,0,2552.1540430001915,,,,,,,,,,,,,,,,clips/clip_herz_03_sub_2.mp4,audios/clip_herz_03_sub_2.mp3,audiovisual,,,,,,,,,,,,,,,,,
