instruction_text,thisN,thisTrialN,thisRepN,prac_attention_resp.keys,prac_attention_resp.rt,prac_attention_resp.duration,exp_atttention_resp.keys,exp_pause_resp.keys,exp_atttention_resp.rt,exp_atttention_resp.duration,exp_pause_resp.rt,exp_pause_resp.duration,instruction_trial.thisRepN,instruction_trial.thisTrialN,instruction_trial.thisN,instruction_trial.thisIndex,practice_trials.thisRepN,practice_trials.thisTrialN,practice_trials.thisN,practice_trials.thisIndex,experiment_trials.thisRepN,experiment_trials.thisTrialN,experiment_trials.thisN,experiment_trials.thisIndex,thisRow.t,notes,piloting,assigned_ls_group,slider_informed_consent.response,Practice_clip_name,Practice_video_used,Practice_audio_used,Practice_modality,Practice_subtitles,Practice_attention_check,Practice_all_cut_rts,practice_trials.prac_attention_resp.keys,Practice_correct_key_required,practice_trials.prac_attention_resp.rt,practice_trials.prac_attention_resp.duration,video_used,audio_used,condition_modality,all_cut_rts,experiment_trials.exp_atttention_resp.keys,experiment_trials.exp_pause_resp.keys,correct_key_required,experiment_trials.exp_atttention_resp.rt,experiment_trials.exp_atttention_resp.duration,experiment_trials.exp_pause_resp.rt,experiment_trials.exp_pause_resp.duration,participant,session,date,expName,expVersion,psychopyVersion,frameRate,expStart,
"Einverständniserklärung

Bitte lesen Sie die folgende Erklärung aufmerksam durch:

Ich bestätige, dass ich über 18 Jahre alt bin und ausreichend Zeit hatte, mich für die Teilnahme zu entscheiden. Ich wurde über die Erhebung, Verarbeitung und öffentliche Zugänglichmachung meiner anonymisierten Daten angemessen informiert.
Ich bin mir bewusst, dass ich das Experiment jederzeit abbrechen kann.

(Drücken Sie die Leertaste, um fortzufahren)",4,4,0,,,,,,,,,,0,4,4,4,,,,,,,,,23.127654199954122,,False,2,ich stimme zu,,,,,,,,,,,,,,,,,,,,,,,120,A,2026-04-04_21h55.44.499,exp_sofc_final,,2026.1.2,60.100885344697375,2026-04-04 21h55.46.620284 +0200,
,,,,,,,,,,,,,,,,,,,,,,,,,,,,,,,,,,,,,,,,,,,,,,,,,,,,120,A,2026-04-04_21h55.44.499,exp_sofc_final,,2026.1.2,60.100885344697375,2026-04-04 21h55.46.620284 +0200,
,0,0,0,None,,,,,,,,,,,,,0,0,0,0,,,,,101.08537069987506,,,,,clip_weißt_18_nosub_1,clips/clip_weißt_18_nosub_1.mp4,audios/silence.mp3,visual,nosub,False,[6.844203800428659],None,,,,,,,,,,,,,,,120,A,2026-04-04_21h55.44.499,exp_sofc_final,,2026.1.2,60.100885344697375,2026-04-04 21h55.46.620284 +0200,
,1,0,1,1,9.287807299755514,None,,,,,,,,,,,1,0,1,0,,,,,113.42369659990072,,,,,clip_wurst_09_sub_1,clips/clip_wurst_09_sub_1.mp4,audios/clip_wurst_09_sub_1.mp3,audiovisual,sub,True,[0.2989244000054896],1,1,9.287807299755514,None,,,,,,,,,,,,120,A,2026-04-04_21h55.44.499,exp_sofc_final,,2026.1.2,60.100885344697375,2026-04-04 21h55.46.620284 +0200,
,2,0,2,1,5.935771200340241,None,,,,,,,,,,,2,0,2,0,,,,,134.9488609000109,,,,,clip_hund_25_sub_1,clips/clip_hund_25_sub_1.mp4,audios/silence.mp3,visual,sub,True,[6.819658999796957],1,1,5.935771200340241,None,,,,,,,,,,,,120,A,2026-04-04_21h55.44.499,exp_sofc_final,,2026.1.2,60.100885344697375,2026-04-04 21h55.46.620284 +0200,
,3,0,3,None,,,,,,,,,,,,,3,0,3,0,,,,,150.14345490001142,,,,,clip_weißt_05_sub_0,clips/clip_weißt_05_sub_0.mp4,audios/clip_weißt_05_sub_0.mp3,audiovisual,sub,False,[],None,,,,,,,,,,,,,,,120,A,2026-04-04_21h55.44.499,exp_sofc_final,,2026.1.2,60.100885344697375,2026-04-04 21h55.46.620284 +0200,
,4,0,4,3,13.73509219987318,None,,,,,,,,,,,4,0,4,0,,,,,160.75462190015242,,,,,clip_weißt_21_nosub_0,clips/clip_weißt_21_nosub_0.mp4,audios/silence.mp3,visual,nosub,True,[0.4215371999889612],3,3,13.73509219987318,None,,,,,,,,,,,,120,A,2026-04-04_21h55.44.499,exp_sofc_final,,2026.1.2,60.100885344697375,2026-04-04 21h55.46.620284 +0200,
,5,0,5,4,9.33447299990803,None,,,,,,,,,,,5,0,5,0,,,,,185.62796960026026,,,,,clip_hund_31_sub_0,clips/clip_hund_31_sub_0.mp4,audios/silence.mp3,visual,sub,True,[],4,4,9.33447299990803,None,,,,,,,,,,,,120,A,2026-04-04_21h55.44.499,exp_sofc_final,,2026.1.2,60.100885344697375,2026-04-04 21h55.46.620284 +0200,
,6,0,6,None,,,,,,,,,,,,,6,0,6,0,,,,,204.3140680999495,,,,,clip_hund_26_sub_1,clips/clip_hund_26_sub_1.mp4,audios/silence.mp3,visual,sub,False,[],None,,,,,,,,,,,,,,,120,A,2026-04-04_21h55.44.499,exp_sofc_final,,2026.1.2,60.100885344697375,2026-04-04 21h55.46.620284 +0200,
,7,0,7,None,,,,,,,,,,,,,7,0,7,0,,,,,214.54232730017975,,,,,clip_weißt_10_nosub_1,clips/clip_weißt_10_nosub_1.mp4,audios/clip_weißt_10_nosub_1.mp3,audiovisual,nosub,False,[5.452967999968678],None,,,,,,,,,,,,,,,120,A,2026-04-04_21h55.44.499,exp_sofc_final,,2026.1.2,60.100885344697375,2026-04-04 21h55.46.620284 +0200,
,8,0,8,None,,,,,,,,,,,,,8,0,8,0,,,,,226.4434854001738,,,,,clip_hund_02_sub_1,clips/clip_hund_02_sub_1.mp4,audios/clip_hund_02_sub_1.mp3,audiovisual,sub,False,[9.556475900113583],None,,,,,,,,,,,,,,,120,A,2026-04-04_21h55.44.499,exp_sofc_final,,2026.1.2,60.100885344697375,2026-04-04 21h55.46.620284 +0200,
,9,0,9,None,,,,,,,,,,,,,9,0,9,0,,,,,237.26015700027347,,,,,clip_hund_28_nosub_0,clips/clip_hund_28_nosub_0.mp4,audios/clip_hund_28_nosub_0.mp3,audiovisual,nosub,False,[],None,,,,,,,,,,,,,,,120,A,2026-04-04_21h55.44.499,exp_sofc_final,,2026.1.2,60.100885344697375,2026-04-04 21h55.46.620284 +0200,
,10,0,10,None,,,,,,,,,,,,,10,0,10,0,,,,,248.00815390003845,,,,,clip_weißt_09_sub_1,clips/clip_weißt_09_sub_1.mp4,audios/silence.mp3,visual,sub,False,[],None,,,,,,,,,,,,,,,120,A,2026-04-04_21h55.44.499,exp_sofc_final,,2026.1.2,60.100885344697375,2026-04-04 21h55.46.620284 +0200,
,11,0,11,None,,,,,,,,,,,,,11,0,11,0,,,,,257.9746288000606,,,,,clip_hund_06_nosub_0,clips/clip_hund_06_nosub_0.mp4,audios/clip_hund_06_nosub_0.mp3,audiovisual,nosub,False,[],None,,,,,,,,,,,,,,,120,A,2026-04-04_21h55.44.499,exp_sofc_final,,2026.1.2,60.100885344697375,2026-04-04 21h55.46.620284 +0200,
,,,,,,,,,,,,,,,,,,,,,,,,,,,,,,,,,,,,,,,,,,,,,,,,,,,,120,A,2026-04-04_21h55.44.499,exp_sofc_final,,2026.1.2,60.100885344697375,2026-04-04 21h55.46.620284 +0200,
,0,0,0,,,,None,None,,,,,,,,,,,,,0,0,0,0,297.8824803000316,,,,,,,,,,,,,,,,clips/clip_hund_14_sub_2.mp4,audios/clip_hund_14_sub_2.mp3,audiovisual,[5.952763000037521],None,None,,,,,,120,A,2026-04-04_21h55.44.499,exp_sofc_final,,2026.1.2,60.100885344697375,2026-04-04 21h55.46.620284 +0200,
,1,0,1,,,,None,None,,,,,,,,,,,,,1,0,1,0,308.5351579003036,,,,,,,,,,,,,,,,clips/clip_weißt_25_nosub_1.mp4,audios/silence.mp3,visual,[0.2802267000079155],None,None,,,,,,120,A,2026-04-04_21h55.44.499,exp_sofc_final,,2026.1.2,60.100885344697375,2026-04-04 21h55.46.620284 +0200,
,2,0,2,,,,None,None,,,,,,,,,,,,,2,0,2,0,321.43111820006743,,,,,,,,,,,,,,,,clips/clip_claude_27_nosub_0.mp4,audios/silence.mp3,visual,[],None,None,,,,,,120,A,2026-04-04_21h55.44.499,exp_sofc_final,,2026.1.2,60.100885344697375,2026-04-04 21h55.46.620284 +0200,
,3,0,3,,,,None,None,,,,,,,,,,,,,3,0,3,0,334.4414645000361,,,,,,,,,,,,,,,,clips/clip_claude_29_nosub_0.mp4,audios/clip_claude_29_nosub_0.mp3,audiovisual,[],None,None,,,,,,120,A,2026-04-04_21h55.44.499,exp_sofc_final,,2026.1.2,60.100885344697375,2026-04-04 21h55.46.620284 +0200,
,4,0,4,,,,None,None,,,,,,,,,,,,,4,0,4,0,345.2820032001473,,,,,,,,,,,,,,,,clips/clip_claude_17_sub_1.mp4,audios/silence.mp3,visual,[10.528905399609357],None,None,,,,,,120,A,2026-04-04_21h55.44.499,exp_sofc_final,,2026.1.2,60.100885344697375,2026-04-04 21h55.46.620284 +0200,
,5,0,5,,,,None,None,,,,,,,,,,,,,5,0,5,0,357.7158842002973,,,,,,,,,,,,,,,,clips/clip_wurst_12_sub_0.mp4,audios/clip_wurst_12_sub_0.mp3,audiovisual,[],None,None,,,,,,120,A,2026-04-04_21h55.44.499,exp_sofc_final,,2026.1.2,60.100885344697375,2026-04-04 21h55.46.620284 +0200,
,6,0,6,,,,None,None,,,,,,,,,,,,,6,0,6,0,367.2531961002387,,,,,,,,,,,,,,,,clips/clip_wurst_24_sub_1.mp4,audios/clip_wurst_24_sub_1.mp3,audiovisual,[],None,None,,,,,,120,A,2026-04-04_21h55.44.499,exp_sofc_final,,2026.1.2,60.100885344697375,2026-04-04 21h55.46.620284 +0200,
,7,0,7,,,,None,None,,,,,,,,,,,,,7,0,7,0,379.3960997001268,,,,,,,,,,,,,,,,clips/clip_herz_03_sub_2.mp4,audios/silence.mp3,visual,"[4.52588800014928, 11.354262600187212]",None,None,,,,,,120,A,2026-04-04_21h55.44.499,exp_sofc_final,,2026.1.2,60.100885344697375,2026-04-04 21h55.46.620284 +0200,
,8,0,8,,,,None,None,,,,,,,,,,,,,8,0,8,0,392.63435210008174,,,,,,,,,,,,,,,,clips/clip_hund_36_nosub_2.mp4,audios/silence.mp3,visual,"[0.3978190999478102, 3.8576108003035188, 6.003204400185496]",None,None,,,,,,120,A,2026-04-04_21h55.44.499,exp_sofc_final,,2026.1.2,60.100885344697375,2026-04-04 21h55.46.620284 +0200,
,9,0,9,,,,4,None,5.502132700290531,None,,,,,,,,,,,9,0,9,0,402.66914759995416,,,,,,,,,,,,,,,,clips/clip_lied_20_sub_2.mp4,audios/clip_lied_20_sub_2.mp3,audiovisual,"[3.8951592999510467, 8.151978899724782]",4,None,4,5.502132700290531,None,,,120,A,2026-04-04_21h55.44.499,exp_sofc_final,,2026.1.2,60.100885344697375,2026-04-04 21h55.46.620284 +0200,
,10,0,10,,,,None,None,,,,,,,,,,,,,10,0,10,0,419.73943790001795,,,,,,,,,,,,,,,,clips/clip_holo_06_sub_2.mp4,audios/silence.mp3,visual,"[5.015883800107986, 9.11327899992466]",None,None,,,,,,120,A,2026-04-04_21h55.44.499,exp_sofc_final,,2026.1.2,60.100885344697375,2026-04-04 21h55.46.620284 +0200,
,11,0,11,,,,4,None,9.802735200151801,None,,,,,,,,,,,11,0,11,0,430.4028815999627,,,,,,,,,,,,,,,,clips/clip_hund_12_nosub_1.mp4,audios/clip_hund_12_nosub_1.mp3,audiovisual,[9.834128299728036],4,None,4,9.802735200151801,None,,,120,A,2026-04-04_21h55.44.499,exp_sofc_final,,2026.1.2,60.100885344697375,2026-04-04 21h55.46.620284 +0200,
,12,0,12,,,,None,None,,,,,,,,,,,,,12,0,12,0,452.32781160017475,,,,,,,,,,,,,,,,clips/clip_holo_11_sub_2.mp4,audios/clip_holo_11_sub_2.mp3,audiovisual,"[5.645785800181329, 9.031488600187004]",None,None,,,,,,120,A,2026-04-04_21h55.44.499,exp_sofc_final,,2026.1.2,60.100885344697375,2026-04-04 21h55.46.620284 +0200,
,13,0,13,,,,None,None,,,,,,,,,,,,,13,0,13,0,462.7431342001073,,,,,,,,,,,,,,,,clips/clip_claude_07_nosub_0.mp4,audios/silence.mp3,visual,[],None,None,,,,,,120,A,2026-04-04_21h55.44.499,exp_sofc_final,,2026.1.2,60.100885344697375,2026-04-04 21h55.46.620284 +0200,
,14,0,14,,,,None,None,,,,,,,,,,,,,14,0,14,0,473.67789279995486,,,,,,,,,,,,,,,,clips/clip_hund_11_nosub_1.mp4,audios/silence.mp3,visual,"[0.1572428997606039, 6.231959099881351]",None,None,,,,,,120,A,2026-04-04_21h55.44.499,exp_sofc_final,,2026.1.2,60.100885344697375,2026-04-04 21h55.46.620284 +0200,
,15,0,15,,,,None,None,,,,,,,,,,,,,15,0,15,0,484.28006540006027,,,,,,,,,,,,,,,,clips/clip_hund_03_nosub_1.mp4,audios/clip_hund_03_nosub_1.mp3,audiovisual,[6.465478099882603],None,None,,,,,,120,A,2026-04-04_21h55.44.499,exp_sofc_final,,2026.1.2,60.100885344697375,2026-04-04 21h55.46.620284 +0200,
,16,0,16,,,,None,None,,,,,,,,,,,,,16,0,16,0,497.08098360011354,,,,,,,,,,,,,,,,clips/clip_lied_04_nosub_0.mp4,audios/silence.mp3,visual,[],None,None,,,,,,120,A,2026-04-04_21h55.44.499,exp_sofc_final,,2026.1.2,60.100885344697375,2026-04-04 21h55.46.620284 +0200,
,17,0,17,,,,None,None,,,,,,,,,,,,,17,0,17,0,508.9156379001215,,,,,,,,,,,,,,,,clips/clip_holo_28_sub_0.mp4,audios/clip_holo_28_sub_0.mp3,audiovisual,[],None,None,,,,,,120,A,2026-04-04_21h55.44.499,exp_sofc_final,,2026.1.2,60.100885344697375,2026-04-04 21h55.46.620284 +0200,
,18,0,18,,,,None,None,,,,,,,,,,,,,18,0,18,0,518.3370683002286,,,,,,,,,,,,,,,,clips/clip_herz_07_sub_2.mp4,audios/silence.mp3,visual,"[4.2326532998122275, 10.795355499722064]",None,None,,,,,,120,A,2026-04-04_21h55.44.499,exp_sofc_final,,2026.1.2,60.100885344697375,2026-04-04 21h55.46.620284 +0200,
,19,0,19,,,,None,None,,,,,,,,,,,,,19,0,19,0,531.2454945002683,,,,,,,,,,,,,,,,clips/clip_holo_10_sub_1.mp4,audios/silence.mp3,visual,[6.081520200241357],None,None,,,,,,120,A,2026-04-04_21h55.44.499,exp_sofc_final,,2026.1.2,60.100885344697375,2026-04-04 21h55.46.620284 +0200,
,20,0,20,,,,None,None,,,,,,,,,,,,,20,0,20,0,542.1583704999648,,,,,,,,,,,,,,,,clips/clip_holo_01_nosub_1.mp4,audios/clip_holo_01_nosub_1.mp3,audiovisual,[4.013957599643618],None,None,,,,,,120,A,2026-04-04_21h55.44.499,exp_sofc_final,,2026.1.2,60.100885344697375,2026-04-04 21h55.46.620284 +0200,
,21,0,21,,,,None,None,,,,,,,,,,,,,21,0,21,0,552.1785507001914,,,,,,,,,,,,,,,,clips/clip_weißt_22_sub_0.mp4,audios/silence.mp3,visual,[],None,None,,,,,,120,A,2026-04-04_21h55.44.499,exp_sofc_final,,2026.1.2,60.100885344697375,2026-04-04 21h55.46.620284 +0200,
,22,0,22,,,,None,None,,,,,,,,,,,,,22,0,22,0,564.1680709999055,,,,,,,,,,,,,,,,clips/clip_lied_10_sub_1.mp4,audios/silence.mp3,visual,[4.370697299949825],None,None,,,,,,120,A,2026-04-04_21h55.44.499,exp_sofc_final,,2026.1.2,60.100885344697375,2026-04-04 21h55.46.620284 +0200,
,23,0,23,,,,4,None,10.437252699863166,None,,,,,,,,,,,23,0,23,0,576.5087267998606,,,,,,,,,,,,,,,,clips/clip_wurst_23_sub_2.mp4,audios/silence.mp3,visual,"[3.5243510003201663, 7.780348800122738]",4,None,4,10.437252699863166,None,,,120,A,2026-04-04_21h55.44.499,exp_sofc_final,,2026.1.2,60.100885344697375,2026-04-04 21h55.46.620284 +0200,
,24,0,24,,,,None,None,,,,,,,,,,,,,24,0,24,0,599.3534420002252,,,,,,,,,,,,,,,,clips/clip_herz_04_sub_0.mp4,audios/clip_herz_04_sub_0.mp3,audiovisual,[8.359474199824035],None,None,,,,,,120,A,2026-04-04_21h55.44.499,exp_sofc_final,,2026.1.2,60.100885344697375,2026-04-04 21h55.46.620284 +0200,
,25,0,25,,,,None,None,,,,,,,,,,,,,25,0,25,0,610.6678114999086,,,,,,,,,,,,,,,,clips/clip_holo_22_sub_1.mp4,audios/silence.mp3,visual,[9.215866799931973],None,None,,,,,,120,A,2026-04-04_21h55.44.499,exp_sofc_final,,2026.1.2,60.100885344697375,2026-04-04 21h55.46.620284 +0200,
,26,0,26,,,,None,None,,,,,,,,,,,,,26,0,26,0,620.7504380000755,,,,,,,,,,,,,,,,clips/clip_holo_07_sub_0.mp4,audios/clip_holo_07_sub_0.mp3,audiovisual,[],None,None,,,,,,120,A,2026-04-04_21h55.44.499,exp_sofc_final,,2026.1.2,60.100885344697375,2026-04-04 21h55.46.620284 +0200,
,27,0,27,,,,None,None,,,,,,,,,,,,,27,0,27,0,630.9936839002185,,,,,,,,,,,,,,,,clips/clip_lied_19_sub_1.mp4,audios/silence.mp3,visual,[5.260415199678391],None,None,,,,,,120,A,2026-04-04_21h55.44.499,exp_sofc_final,,2026.1.2,60.100885344697375,2026-04-04 21h55.46.620284 +0200,
,28,0,28,,,,2,None,5.8263522000052035,None,,,,,,,,,,,28,0,28,0,642.6241402002051,,,,,,,,,,,,,,,,clips/clip_dampf_06_sub_2.mp4,audios/clip_dampf_06_sub_2.mp3,audiovisual,[],2,None,2,5.8263522000052035,None,,,120,A,2026-04-04_21h55.44.499,exp_sofc_final,,2026.1.2,60.100885344697375,2026-04-04 21h55.46.620284 +0200,
,29,0,29,,,,None,None,,,,,,,,,,,,,29,0,29,0,658.4878246001899,,,,,,,,,,,,,,,,clips/clip_lied_05_nosub_0.mp4,audios/clip_lied_05_nosub_0.mp3,audiovisual,[],None,None,,,,,,120,A,2026-04-04_21h55.44.499,exp_sofc_final,,2026.1.2,60.100885344697375,2026-04-04 21h55.46.620284 +0200,
,30,0,30,,,,None,None,,,,,,,,,,,,,30,0,30,0,668.6079326001927,,,,,,,,,,,,,,,,clips/clip_wurst_27_sub_1.mp4,audios/silence.mp3,visual,[7.039658099878579],None,None,,,,,,120,A,2026-04-04_21h55.44.499,exp_sofc_final,,2026.1.2,60.100885344697375,2026-04-04 21h55.46.620284 +0200,
,31,0,31,,,,None,None,,,,,,,,,,,,,31,0,31,0,679.6688810000196,,,,,,,,,,,,,,,,clips/clip_herz_16_sub_0.mp4,audios/clip_herz_16_sub_0.mp3,audiovisual,[4.171928100287914],None,None,,,,,,120,A,2026-04-04_21h55.44.499,exp_sofc_final,,2026.1.2,60.100885344697375,2026-04-04 21h55.46.620284 +0200,
,32,0,32,,,,3,None,7.215542399790138,None,,,,,,,,,,,32,0,32,0,689.4822629000992,,,,,,,,,,,,,,,,clips/clip_wurst_22_nosub_0.mp4,audios/clip_wurst_22_nosub_0.mp3,audiovisual,[],3,None,3,7.215542399790138,None,,,120,A,2026-04-04_21h55.44.499,exp_sofc_final,,2026.1.2,60.100885344697375,2026-04-04 21h55.46.620284 +0200,
,33,0,33,,,,None,None,,,,,,,,,,,,,33,0,33,0,709.2781429998577,,,,,,,,,,,,,,,,clips/clip_wurst_18_nosub_0.mp4,audios/clip_wurst_18_nosub_0.mp3,audiovisual,[],None,None,,,,,,120,A,2026-04-04_21h55.44.499,exp_sofc_final,,2026.1.2,60.100885344697375,2026-04-04 21h55.46.620284 +0200,
,34,0,34,,,,None,None,,,,,,,,,,,,,34,0,34,0,720.1381605002098,,,,,,,,,,,,,,,,clips/clip_lied_08_nosub_1.mp4,audios/silence.mp3,visual,[7.514920799992979],None,None,,,,,,120,A,2026-04-04_21h55.44.499,exp_sofc_final,,2026.1.2,60.100885344697375,2026-04-04 21h55.46.620284 +0200,
,35,0,35,,,,None,None,,,,,,,,,,,,,35,0,35,0,730.1736238999292,,,,,,,,,,,,,,,,clips/clip_wurst_01_sub_0.mp4,audios/silence.mp3,visual,[],None,None,,,,,,120,A,2026-04-04_21h55.44.499,exp_sofc_final,,2026.1.2,60.100885344697375,2026-04-04 21h55.46.620284 +0200,
,36,0,36,,,,None,None,,,,,,,,,,,,,36,0,36,0,740.9959448999725,,,,,,,,,,,,,,,,clips/clip_weißt_28_sub_1.mp4,audios/clip_weißt_28_sub_1.mp3,audiovisual,"[2.171146800275892, 6.815485599916428]",None,None,,,,,,120,A,2026-04-04_21h55.44.499,exp_sofc_final,,2026.1.2,60.100885344697375,2026-04-04 21h55.46.620284 +0200,
,37,0,37,,,,None,None,,,,,,,,,,,,,37,0,37,0,751.8726285002194,,,,,,,,,,,,,,,,clips/clip_wurst_30_nosub_1.mp4,audios/clip_wurst_30_nosub_1.mp3,audiovisual,[],None,None,,,,,,120,A,2026-04-04_21h55.44.499,exp_sofc_final,,2026.1.2,60.100885344697375,2026-04-04 21h55.46.620284 +0200,
,38,0,38,,,,None,None,,,,,,,,,,,,,38,0,38,0,762.7597023001872,,,,,,,,,,,,,,,,clips/clip_hund_30_nosub_0.mp4,audios/silence.mp3,visual,[],None,None,,,,,,120,A,2026-04-04_21h55.44.499,exp_sofc_final,,2026.1.2,60.100885344697375,2026-04-04 21h55.46.620284 +0200,
,39,0,39,,,,None,None,,,,,,,,,,,,,39,0,39,0,775.6272971001454,,,,,,,,,,,,,,,,clips/clip_wurst_28_sub_1.mp4,audios/clip_wurst_28_sub_1.mp3,audiovisual,[],None,None,,,,,,120,A,2026-04-04_21h55.44.499,exp_sofc_final,,2026.1.2,60.100885344697375,2026-04-04 21h55.46.620284 +0200,
,40,0,40,,,,None,None,,,,,,,,,,,,,40,0,40,0,786.7405751999468,,,,,,,,,,,,,,,,clips/clip_lied_21_nosub_2.mp4,audios/silence.mp3,visual,"[5.036176899913698, 10.401281800121069]",None,None,,,,,,120,A,2026-04-04_21h55.44.499,exp_sofc_final,,2026.1.2,60.100885344697375,2026-04-04 21h55.46.620284 +0200,
,41,0,41,,,,2,None,5.361179300118238,None,,,,,,,,,,,41,0,41,0,799.2485964000225,,,,,,,,,,,,,,,,clips/clip_dampf_04_nosub_1.mp4,audios/clip_dampf_04_nosub_1.mp3,audiovisual,[4.8711723000742495],2,None,2,5.361179300118238,None,,,120,A,2026-04-04_21h55.44.499,exp_sofc_final,,2026.1.2,60.100885344697375,2026-04-04 21h55.46.620284 +0200,
,42,0,42,,,,None,None,,,,,,,,,,,,,42,0,42,0,815.0703524001874,,,,,,,,,,,,,,,,clips/clip_herz_13_nosub_0.mp4,audios/silence.mp3,visual,[7.64977140026167],None,None,,,,,,120,A,2026-04-04_21h55.44.499,exp_sofc_final,,2026.1.2,60.100885344697375,2026-04-04 21h55.46.620284 +0200,
,43,0,43,,,,None,None,,,,,,,,,,,,,43,0,43,0,827.0878953998908,,,,,,,,,,,,,,,,clips/clip_holo_17_nosub_0.mp4,audios/clip_holo_17_nosub_0.mp3,audiovisual,[],None,None,,,,,,120,A,2026-04-04_21h55.44.499,exp_sofc_final,,2026.1.2,60.100885344697375,2026-04-04 21h55.46.620284 +0200,
,44,0,44,,,,2,None,4.077495800331235,None,,,,,,,,,,,44,0,44,0,837.8140805000439,,,,,,,,,,,,,,,,clips/clip_holo_23_sub_1.mp4,audios/clip_holo_23_sub_1.mp3,audiovisual,[],2,None,2,4.077495800331235,None,,,120,A,2026-04-04_21h55.44.499,exp_sofc_final,,2026.1.2,60.100885344697375,2026-04-04 21h55.46.620284 +0200,
,45,0,45,,,,None,None,,,,,,,,,,,,,45,0,45,0,852.9149576001801,,,,,,,,,,,,,,,,clips/clip_claude_11_nosub_0.mp4,audios/silence.mp3,visual,[],None,None,,,,,,120,A,2026-04-04_21h55.44.499,exp_sofc_final,,2026.1.2,60.100885344697375,2026-04-04 21h55.46.620284 +0200,
,46,0,46,,,,2,None,8.27349720010534,None,,,,,,,,,,,46,0,46,0,863.7034134999849,,,,,,,,,,,,,,,,clips/clip_wurst_15_sub_2.mp4,audios/silence.mp3,visual,"[5.5483269998803735, 7.85089740017429]",2,None,2,8.27349720010534,None,,,120,A,2026-04-04_21h55.44.499,exp_sofc_final,,2026.1.2,60.100885344697375,2026-04-04 21h55.46.620284 +0200,
,47,0,47,,,,None,None,,,,,,,,,,,,,47,0,47,0,882.5079455003142,,,,,,,,,,,,,,,,clips/clip_hund_32_nosub_1.mp4,audios/clip_hund_32_nosub_1.mp3,audiovisual,"[4.687482099980116, 6.61941729998216]",None,None,,,,,,120,A,2026-04-04_21h55.44.499,exp_sofc_final,,2026.1.2,60.100885344697375,2026-04-04 21h55.46.620284 +0200,
,48,0,48,,,,None,None,,,,,,,,,,,,,48,0,48,0,893.3265895000659,,,,,,,,,,,,,,,,clips/clip_wurst_19_sub_0.mp4,audios/silence.mp3,visual,[],None,None,,,,,,120,A,2026-04-04_21h55.44.499,exp_sofc_final,,2026.1.2,60.100885344697375,2026-04-04 21h55.46.620284 +0200,
,49,0,49,,,,None,None,,,,,,,,,,,,,49,0,49,0,905.277680200059,,,,,,,,,,,,,,,,clips/clip_wurst_11_sub_0.mp4,audios/silence.mp3,visual,[],None,None,,,,,,120,A,2026-04-04_21h55.44.499,exp_sofc_final,,2026.1.2,60.100885344697375,2026-04-04 21h55.46.620284 +0200,
,50,0,50,,,,None,None,,,,,,,,,,,,,50,0,50,0,918.2191710001789,,,,,,,,,,,,,,,,clips/clip_hund_35_sub_0.mp4,audios/clip_hund_35_sub_0.mp3,audiovisual,[],None,None,,,,,,120,A,2026-04-04_21h55.44.499,exp_sofc_final,,2026.1.2,60.100885344697375,2026-04-04 21h55.46.620284 +0200,
,51,0,51,,,,None,None,,,,,,,,,,,,,51,0,51,0,929.5142577001825,,,,,,,,,,,,,,,,clips/clip_wurst_10_nosub_2.mp4,audios/clip_wurst_10_nosub_2.mp3,audiovisual,"[4.702534500043839, 7.410959899891168]",None,None,,,,,,120,A,2026-04-04_21h55.44.499,exp_sofc_final,,2026.1.2,60.100885344697375,2026-04-04 21h55.46.620284 +0200,
,52,0,52,,,,None,None,,,,,,,,,,,,,52,0,52,0,939.2199075003155,,,,,,,,,,,,,,,,clips/clip_holo_09_nosub_2.mp4,audios/clip_holo_09_nosub_2.mp3,audiovisual,[],None,None,,,,,,120,A,2026-04-04_21h55.44.499,exp_sofc_final,,2026.1.2,60.100885344697375,2026-04-04 21h55.46.620284 +0200,
,53,0,53,,,,None,None,,,,,,,,,,,,,53,0,53,0,951.5307864001952,,,,,,,,,,,,,,,,clips/clip_weißt_26_nosub_1.mp4,audios/clip_weißt_26_nosub_1.mp3,audiovisual,"[7.23983269976452, 9.183013499714434]",None,None,,,,,,120,A,2026-04-04_21h55.44.499,exp_sofc_final,,2026.1.2,60.100885344697375,2026-04-04 21h55.46.620284 +0200,
,54,0,54,,,,4,None,5.566659400239587,None,,,,,,,,,,,54,0,54,0,962.5321984998882,,,,,,,,,,,,,,,,clips/clip_holo_20_nosub_1.mp4,audios/silence.mp3,visual,[],4,None,4,5.566659400239587,None,,,120,A,2026-04-04_21h55.44.499,exp_sofc_final,,2026.1.2,60.100885344697375,2026-04-04 21h55.46.620284 +0200,
,55,0,55,,,,None,None,,,,,,,,,,,,,55,0,55,0,978.5315541001037,,,,,,,,,,,,,,,,clips/clip_lied_09_nosub_1.mp4,audios/clip_lied_09_nosub_1.mp3,audiovisual,[],None,None,,,,,,120,A,2026-04-04_21h55.44.499,exp_sofc_final,,2026.1.2,60.100885344697375,2026-04-04 21h55.46.620284 +0200,
,56,0,56,,,,None,None,,,,,,,,,,,,,56,0,56,0,989.8421622999012,,,,,,,,,,,,,,,,clips/clip_wurst_26_nosub_1.mp4,audios/clip_wurst_26_nosub_1.mp3,audiovisual,[10.070704800076783],None,None,,,,,,120,A,2026-04-04_21h55.44.499,exp_sofc_final,,2026.1.2,60.100885344697375,2026-04-04 21h55.46.620284 +0200,
,57,0,57,,,,3,None,4.3051862004213035,None,,,,,,,,,,,57,0,57,0,1002.6425528000109,,,,,,,,,,,,,,,,clips/clip_wurst_06_sub_2.mp4,audios/silence.mp3,visual,"[2.9906564000993967, 8.259042700286955]",3,None,3,4.3051862004213035,None,,,120,A,2026-04-04_21h55.44.499,exp_sofc_final,,2026.1.2,60.100885344697375,2026-04-04 21h55.46.620284 +0200,
,58,0,58,,,,None,None,,,,,,,,,,,,,58,0,58,0,1019.0375699000433,,,,,,,,,,,,,,,,clips/clip_herz_01_nosub_1.mp4,audios/silence.mp3,visual,[6.084888800047338],None,None,,,,,,120,A,2026-04-04_21h55.44.499,exp_sofc_final,,2026.1.2,60.100885344697375,2026-04-04 21h55.46.620284 +0200,
,59,0,59,,,,None,space,,,60.46727469982579,None,,,,,,,,,59,0,59,0,1030.4934919001535,,,,,,,,,,,,,,,,clips/clip_hund_08_nosub_1.mp4,audios/clip_hund_08_nosub_1.mp3,audiovisual,[],None,space,,,,60.46727469982579,None,120,A,2026-04-04_21h55.44.499,exp_sofc_final,,2026.1.2,60.100885344697375,2026-04-04 21h55.46.620284 +0200,
,60,0,60,,,,None,None,,,,,,,,,,,,,60,0,60,0,1101.9556773998775,,,,,,,,,,,,,,,,clips/clip_wurst_03_sub_1.mp4,audios/clip_wurst_03_sub_1.mp3,audiovisual,"[4.261232200078666, 7.750267900060862]",None,None,,,,,,120,A,2026-04-04_21h55.44.499,exp_sofc_final,,2026.1.2,60.100885344697375,2026-04-04 21h55.46.620284 +0200,
,61,0,61,,,,None,None,,,,,,,,,,,,,61,0,61,0,1114.6908928998746,,,,,,,,,,,,,,,,clips/clip_weißt_02_sub_0.mp4,audios/clip_weißt_02_sub_0.mp3,audiovisual,[],None,None,,,,,,120,A,2026-04-04_21h55.44.499,exp_sofc_final,,2026.1.2,60.100885344697375,2026-04-04 21h55.46.620284 +0200,
,62,0,62,,,,3,None,5.256736000068486,None,,,,,,,,,,,62,0,62,0,1125.6090870001353,,,,,,,,,,,,,,,,clips/clip_weißt_06_sub_0.mp4,audios/silence.mp3,visual,[5.582571200095117],3,None,3,5.256736000068486,None,,,120,A,2026-04-04_21h55.44.499,exp_sofc_final,,2026.1.2,60.100885344697375,2026-04-04 21h55.46.620284 +0200,
,63,0,63,,,,None,None,,,,,,,,,,,,,63,0,63,0,1142.2138513000682,,,,,,,,,,,,,,,,clips/clip_herz_02_nosub_0.mp4,audios/clip_herz_02_nosub_0.mp3,audiovisual,[9.045608399901539],None,None,,,,,,120,A,2026-04-04_21h55.44.499,exp_sofc_final,,2026.1.2,60.100885344697375,2026-04-04 21h55.46.620284 +0200,
,64,0,64,,,,None,None,,,,,,,,,,,,,64,0,64,0,1155.3787600002252,,,,,,,,,,,,,,,,clips/clip_wurst_31_sub_1.mp4,audios/silence.mp3,visual,[],None,None,,,,,,120,A,2026-04-04_21h55.44.499,exp_sofc_final,,2026.1.2,60.100885344697375,2026-04-04 21h55.46.620284 +0200,
,65,0,65,,,,None,None,,,,,,,,,,,,,65,0,65,0,1167.2788170999847,,,,,,,,,,,,,,,,clips/clip_dampf_01_sub_0.mp4,audios/silence.mp3,visual,[],None,None,,,,,,120,A,2026-04-04_21h55.44.499,exp_sofc_final,,2026.1.2,60.100885344697375,2026-04-04 21h55.46.620284 +0200,
,66,0,66,,,,4,None,7.36799249984324,None,,,,,,,,,,,66,0,66,0,1177.577237599995,,,,,,,,,,,,,,,,clips/clip_herz_08_sub_0.mp4,audios/clip_herz_08_sub_0.mp3,audiovisual,"[5.276838699821383, 9.470019800122827]",4,None,4,7.36799249984324,None,,,120,A,2026-04-04_21h55.44.499,exp_sofc_final,,2026.1.2,60.100885344697375,2026-04-04 21h55.46.620284 +0200,
,67,0,67,,,,None,None,,,,,,,,,,,,,67,0,67,0,1198.3479804000817,,,,,,,,,,,,,,,,clips/clip_claude_26_sub_0.mp4,audios/clip_claude_26_sub_0.mp3,audiovisual,[4.075387599878013],None,None,,,,,,120,A,2026-04-04_21h55.44.499,exp_sofc_final,,2026.1.2,60.100885344697375,2026-04-04 21h55.46.620284 +0200,
,68,0,68,,,,None,None,,,,,,,,,,,,,68,0,68,0,1209.749537799973,,,,,,,,,,,,,,,,clips/clip_claude_24_nosub_1.mp4,audios/clip_claude_24_nosub_1.mp3,audiovisual,[5.920483400113881],None,None,,,,,,120,A,2026-04-04_21h55.44.499,exp_sofc_final,,2026.1.2,60.100885344697375,2026-04-04 21h55.46.620284 +0200,
,69,0,69,,,,None,None,,,,,,,,,,,,,69,0,69,0,1216.8210316998884,,,,,,,,,,,,,,,,clips/clip_hund_13_sub_1.mp4,audios/silence.mp3,visual,[5.791137699969113],None,None,,,,,,120,A,2026-04-04_21h55.44.499,exp_sofc_final,,2026.1.2,60.100885344697375,2026-04-04 21h55.46.620284 +0200,
,70,0,70,,,,None,None,,,,,,,,,,,,,70,0,70,0,1229.4550264002755,,,,,,,,,,,,,,,,clips/clip_wurst_20_sub_0.mp4,audios/clip_wurst_20_sub_0.mp3,audiovisual,[],None,None,,,,,,120,A,2026-04-04_21h55.44.499,exp_sofc_final,,2026.1.2,60.100885344697375,2026-04-04 21h55.46.620284 +0200,
,71,0,71,,,,None,None,,,,,,,,,,,,,71,0,71,0,1240.2843025000766,,,,,,,,,,,,,,,,clips/clip_wurst_33_nosub_0.mp4,audios/silence.mp3,visual,[],None,None,,,,,,120,A,2026-04-04_21h55.44.499,exp_sofc_final,,2026.1.2,60.100885344697375,2026-04-04 21h55.46.620284 +0200,
,72,0,72,,,,1,None,4.193257200066,None,,,,,,,,,,,72,0,72,0,1250.896276799962,,,,,,,,,,,,,,,,clips/clip_hund_19_nosub_0.mp4,audios/silence.mp3,visual,[],1,None,1,4.193257200066,None,,,120,A,2026-04-04_21h55.44.499,exp_sofc_final,,2026.1.2,60.100885344697375,2026-04-04 21h55.46.620284 +0200,
,73,0,73,,,,None,None,,,,,,,,,,,,,73,0,73,0,1267.3752639000304,,,,,,,,,,,,,,,,clips/clip_herz_14_nosub_0.mp4,audios/clip_herz_14_nosub_0.mp3,audiovisual,[],None,None,,,,,,120,A,2026-04-04_21h55.44.499,exp_sofc_final,,2026.1.2,60.100885344697375,2026-04-04 21h55.46.620284 +0200,
,74,0,74,,,,3,None,3.7802789001725614,None,,,,,,,,,,,74,0,74,0,1278.656480500009,,,,,,,,,,,,,,,,clips/clip_dampf_05_sub_2.mp4,audios/silence.mp3,visual,"[3.5579624003730714, 8.490541800390929]",3,None,3,3.7802789001725614,None,,,120,A,2026-04-04_21h55.44.499,exp_sofc_final,,2026.1.2,60.100885344697375,2026-04-04 21h55.46.620284 +0200,
,75,0,75,,,,None,None,,,,,,,,,,,,,75,0,75,0,1292.0430708001368,,,,,,,,,,,,,,,,clips/clip_claude_23_nosub_0.mp4,audios/silence.mp3,visual,[],None,None,,,,,,120,A,2026-04-04_21h55.44.499,exp_sofc_final,,2026.1.2,60.100885344697375,2026-04-04 21h55.46.620284 +0200,
,76,0,76,,,,None,None,,,,,,,,,,,,,76,0,76,0,1305.1099256002344,,,,,,,,,,,,,,,,clips/clip_weißt_13_sub_0.mp4,audios/clip_weißt_13_sub_0.mp3,audiovisual,[],None,None,,,,,,120,A,2026-04-04_21h55.44.499,exp_sofc_final,,2026.1.2,60.100885344697375,2026-04-04 21h55.46.620284 +0200,
,77,0,77,,,,None,None,,,,,,,,,,,,,77,0,77,0,1316.748139299918,,,,,,,,,,,,,,,,clips/clip_lied_07_sub_1.mp4,audios/clip_lied_07_sub_1.mp3,audiovisual,[4.412604100070894],None,None,,,,,,120,A,2026-04-04_21h55.44.499,exp_sofc_final,,2026.1.2,60.100885344697375,2026-04-04 21h55.46.620284 +0200,
,78,0,78,,,,None,None,,,,,,,,,,,,,78,0,78,0,1326.636950599961,,,,,,,,,,,,,,,,clips/clip_holo_24_nosub_2.mp4,audios/silence.mp3,visual,"[7.025855899788439, 9.672732499893755]",None,None,,,,,,120,A,2026-04-04_21h55.44.499,exp_sofc_final,,2026.1.2,60.100885344697375,2026-04-04 21h55.46.620284 +0200,
,79,0,79,,,,None,None,,,,,,,,,,,,,79,0,79,0,1337.3368353000842,,,,,,,,,,,,,,,,clips/clip_holo_27_sub_1.mp4,audios/silence.mp3,visual,[5.272951100021601],None,None,,,,,,120,A,2026-04-04_21h55.44.499,exp_sofc_final,,2026.1.2,60.100885344697375,2026-04-04 21h55.46.620284 +0200,
,80,0,80,,,,None,None,,,,,,,,,,,,,80,0,80,0,1348.1634781002067,,,,,,,,,,,,,,,,clips/clip_herz_17_nosub_0.mp4,audios/silence.mp3,visual,[5.432775200344622],None,None,,,,,,120,A,2026-04-04_21h55.44.499,exp_sofc_final,,2026.1.2,60.100885344697375,2026-04-04 21h55.46.620284 +0200,
,81,0,81,,,,None,None,,,,,,,,,,,,,81,0,81,0,1357.2167262001894,,,,,,,,,,,,,,,,clips/clip_holo_15_sub_0.mp4,audios/clip_holo_15_sub_0.mp3,audiovisual,[6.122942099813372],None,None,,,,,,120,A,2026-04-04_21h55.44.499,exp_sofc_final,,2026.1.2,60.100885344697375,2026-04-04 21h55.46.620284 +0200,
,82,0,82,,,,None,None,,,,,,,,,,,,,82,0,82,0,1367.3365934998728,,,,,,,,,,,,,,,,clips/clip_weißt_20_nosub_1.mp4,audios/clip_weißt_20_nosub_1.mp3,audiovisual,[7.864258300047368],None,None,,,,,,120,A,2026-04-04_21h55.44.499,exp_sofc_final,,2026.1.2,60.100885344697375,2026-04-04 21h55.46.620284 +0200,
,83,0,83,,,,None,None,,,,,,,,,,,,,83,0,83,0,1377.93142000027,,,,,,,,,,,,,,,,clips/clip_weißt_17_sub_0.mp4,audios/clip_weißt_17_sub_0.mp3,audiovisual,[],None,None,,,,,,120,A,2026-04-04_21h55.44.499,exp_sofc_final,,2026.1.2,60.100885344697375,2026-04-04 21h55.46.620284 +0200,
,84,0,84,,,,None,None,,,,,,,,,,,,,84,0,84,0,1390.3090911000036,,,,,,,,,,,,,,,,clips/clip_claude_08_nosub_0.mp4,audios/clip_claude_08_nosub_0.mp3,audiovisual,[],None,None,,,,,,120,A,2026-04-04_21h55.44.499,exp_sofc_final,,2026.1.2,60.100885344697375,2026-04-04 21h55.46.620284 +0200,
,85,0,85,,,,None,None,,,,,,,,,,,,,85,0,85,0,1400.8008396001533,,,,,,,,,,,,,,,,clips/clip_claude_18_sub_0.mp4,audios/clip_claude_18_sub_0.mp3,audiovisual,[],None,None,,,,,,120,A,2026-04-04_21h55.44.499,exp_sofc_final,,2026.1.2,60.100885344697375,2026-04-04 21h55.46.620284 +0200,
,86,0,86,,,,None,None,,,,,,,,,,,,,86,0,86,0,1410.6974384002388,,,,,,,,,,,,,,,,clips/clip_wurst_32_sub_1.mp4,audios/clip_wurst_32_sub_1.mp3,audiovisual,[7.189523700159043],None,None,,,,,,120,A,2026-04-04_21h55.44.499,exp_sofc_final,,2026.1.2,60.100885344697375,2026-04-04 21h55.46.620284 +0200,
,87,0,87,,,,None,None,,,,,,,,,,,,,87,0,87,0,1422.2123147002421,,,,,,,,,,,,,,,,clips/clip_claude_06_sub_1.mp4,audios/clip_claude_06_sub_1.mp3,audiovisual,"[1.685003699734807, 4.052326399832964]",None,None,,,,,,120,A,2026-04-04_21h55.44.499,exp_sofc_final,,2026.1.2,60.100885344697375,2026-04-04 21h55.46.620284 +0200,
,88,0,88,,,,None,None,,,,,,,,,,,,,88,0,88,0,1435.6916964002885,,,,,,,,,,,,,,,,clips/clip_hund_29_sub_0.mp4,audios/clip_hund_29_sub_0.mp3,audiovisual,"[2.5125397997908294, 10.590349299833179]",None,None,,,,,,120,A,2026-04-04_21h55.44.499,exp_sofc_final,,2026.1.2,60.100885344697375,2026-04-04 21h55.46.620284 +0200,
,89,0,89,,,,None,None,,,,,,,,,,,,,89,0,89,0,1447.9679159000516,,,,,,,,,,,,,,,,clips/clip_hund_21_sub_1.mp4,audios/silence.mp3,visual,[6.338635600171983],None,None,,,,,,120,A,2026-04-04_21h55.44.499,exp_sofc_final,,2026.1.2,60.100885344697375,2026-04-04 21h55.46.620284 +0200,
,90,0,90,,,,None,None,,,,,,,,,,,,,90,0,90,0,1458.8771108998917,,,,,,,,,,,,,,,,clips/clip_wurst_04_nosub_2.mp4,audios/silence.mp3,visual,"[4.100825299974531, 6.974115599878132]",None,None,,,,,,120,A,2026-04-04_21h55.44.499,exp_sofc_final,,2026.1.2,60.100885344697375,2026-04-04 21h55.46.620284 +0200,
,91,0,91,,,,None,None,,,,,,,,,,,,,91,0,91,0,1471.3877824000083,,,,,,,,,,,,,,,,clips/clip_dampf_02_sub_1.mp4,audios/clip_dampf_02_sub_1.mp3,audiovisual,[4.945402599871159],None,None,,,,,,120,A,2026-04-04_21h55.44.499,exp_sofc_final,,2026.1.2,60.100885344697375,2026-04-04 21h55.46.620284 +0200,
,92,0,92,,,,None,None,,,,,,,,,,,,,92,0,92,0,1481.6281407000497,,,,,,,,,,,,,,,,clips/clip_wurst_34_nosub_2.mp4,audios/clip_wurst_34_nosub_2.mp3,audiovisual,"[4.071130699943751, 6.0986366998404264]",None,None,,,,,,120,A,2026-04-04_21h55.44.499,exp_sofc_final,,2026.1.2,60.100885344697375,2026-04-04 21h55.46.620284 +0200,
,93,0,93,,,,None,None,,,,,,,,,,,,,93,0,93,0,1491.0361528000794,,,,,,,,,,,,,,,,clips/clip_holo_05_nosub_2.mp4,audios/clip_holo_05_nosub_2.mp3,audiovisual,[6.945480599999428],None,None,,,,,,120,A,2026-04-04_21h55.44.499,exp_sofc_final,,2026.1.2,60.100885344697375,2026-04-04 21h55.46.620284 +0200,
,94,0,94,,,,None,None,,,,,,,,,,,,,94,0,94,0,1501.0665135001764,,,,,,,,,,,,,,,,clips/clip_lied_16_sub_2.mp4,audios/clip_lied_16_sub_2.mp3,audiovisual,"[3.787587800063193, 6.498413499910384]",None,None,,,,,,120,A,2026-04-04_21h55.44.499,exp_sofc_final,,2026.1.2,60.100885344697375,2026-04-04 21h55.46.620284 +0200,
,95,0,95,,,,None,None,,,,,,,,,,,,,95,0,95,0,1512.491935300175,,,,,,,,,,,,,,,,clips/clip_claude_14_sub_0.mp4,audios/clip_claude_14_sub_0.mp3,audiovisual,"[1.4154733000323176, 3.026025800034404, 8.749996399972588, 9.7581862998195]",None,None,,,,,,120,A,2026-04-04_21h55.44.499,exp_sofc_final,,2026.1.2,60.100885344697375,2026-04-04 21h55.46.620284 +0200,
,96,0,96,,,,1,None,4.249823500402272,None,,,,,,,,,,,96,0,96,0,1524.4023670000024,,,,,,,,,,,,,,,,clips/clip_weißt_15_nosub_1.mp4,audios/clip_weißt_15_nosub_1.mp3,audiovisual,"[3.213408399838954, 5.14934749994427]",1,None,1,4.249823500402272,None,,,120,A,2026-04-04_21h55.44.499,exp_sofc_final,,2026.1.2,60.100885344697375,2026-04-04 21h55.46.620284 +0200,
,97,0,97,,,,2,None,3.78123169997707,None,,,,,,,,,,,97,0,97,0,1540.584959700238,,,,,,,,,,,,,,,,clips/clip_hund_15_nosub_1.mp4,audios/silence.mp3,visual,[4.6189683000557125],2,None,2,3.78123169997707,None,,,120,A,2026-04-04_21h55.44.499,exp_sofc_final,,2026.1.2,60.100885344697375,2026-04-04 21h55.46.620284 +0200,
,98,0,98,,,,None,None,,,,,,,,,,,,,98,0,98,0,1555.6909913001582,,,,,,,,,,,,,,,,clips/clip_lied_12_nosub_0.mp4,audios/silence.mp3,visual,[],None,None,,,,,,120,A,2026-04-04_21h55.44.499,exp_sofc_final,,2026.1.2,60.100885344697375,2026-04-04 21h55.46.620284 +0200,
,99,0,99,,,,None,None,,,,,,,,,,,,,99,0,99,0,1565.4447087999433,,,,,,,,,,,,,,,,clips/clip_hund_09_sub_2.mp4,audios/silence.mp3,visual,"[5.678210300393403, 10.456283899955451]",None,None,,,,,,120,A,2026-04-04_21h55.44.499,exp_sofc_final,,2026.1.2,60.100885344697375,2026-04-04 21h55.46.620284 +0200,
,100,0,100,,,,None,None,,,,,,,,,,,,,100,0,100,0,1577.9058892000467,,,,,,,,,,,,,,,,clips/clip_weißt_07_sub_1.mp4,audios/clip_weißt_07_sub_1.mp3,audiovisual,"[3.8269684999249876, 7.821188800036907]",None,None,,,,,,120,A,2026-04-04_21h55.44.499,exp_sofc_final,,2026.1.2,60.100885344697375,2026-04-04 21h55.46.620284 +0200,
,101,0,101,,,,None,None,,,,,,,,,,,,,101,0,101,0,1588.5466030002572,,,,,,,,,,,,,,,,clips/clip_claude_05_sub_2.mp4,audios/silence.mp3,visual,[4.654907699674368],None,None,,,,,,120,A,2026-04-04_21h55.44.499,exp_sofc_final,,2026.1.2,60.100885344697375,2026-04-04 21h55.46.620284 +0200,
,102,0,102,,,,4,None,6.272921500261873,None,,,,,,,,,,,102,0,102,0,1600.6143737002276,,,,,,,,,,,,,,,,clips/clip_lied_22_nosub_1.mp4,audios/clip_lied_22_nosub_1.mp3,audiovisual,[5.918100900016725],4,None,4,6.272921500261873,None,,,120,A,2026-04-04_21h55.44.499,exp_sofc_final,,2026.1.2,60.100885344697375,2026-04-04 21h55.46.620284 +0200,
,103,0,103,,,,None,None,,,,,,,,,,,,,103,0,103,0,1618.2465361002833,,,,,,,,,,,,,,,,clips/clip_weißt_16_sub_0.mp4,audios/silence.mp3,visual,[],None,None,,,,,,120,A,2026-04-04_21h55.44.499,exp_sofc_final,,2026.1.2,60.100885344697375,2026-04-04 21h55.46.620284 +0200,
,104,0,104,,,,None,None,,,,,,,,,,,,,104,0,104,0,1629.6746784001589,,,,,,,,,,,,,,,,clips/clip_hund_34_sub_1.mp4,audios/silence.mp3,visual,[],None,None,,,,,,120,A,2026-04-04_21h55.44.499,exp_sofc_final,,2026.1.2,60.100885344697375,2026-04-04 21h55.46.620284 +0200,
,105,0,105,,,,None,None,,,,,,,,,,,,,105,0,105,0,1640.9113153000362,,,,,,,,,,,,,,,,clips/clip_weißt_08_nosub_0.mp4,audios/silence.mp3,visual,[7.589681300334632],None,None,,,,,,120,A,2026-04-04_21h55.44.499,exp_sofc_final,,2026.1.2,60.100885344697375,2026-04-04 21h55.46.620284 +0200,
,106,0,106,,,,None,None,,,,,,,,,,,,,106,0,106,0,1652.0464504999109,,,,,,,,,,,,,,,,clips/clip_weißt_29_nosub_1.mp4,audios/silence.mp3,visual,[6.685347700025886],None,None,,,,,,120,A,2026-04-04_21h55.44.499,exp_sofc_final,,2026.1.2,60.100885344697375,2026-04-04 21h55.46.620284 +0200,
,107,0,107,,,,None,None,,,,,,,,,,,,,107,0,107,0,1664.6046986002475,,,,,,,,,,,,,,,,clips/clip_claude_01_sub_2.mp4,audios/silence.mp3,visual,"[6.652535599656403, 8.537236699834466]",None,None,,,,,,120,A,2026-04-04_21h55.44.499,exp_sofc_final,,2026.1.2,60.100885344697375,2026-04-04 21h55.46.620284 +0200,
,108,0,108,,,,3,None,3.6744295000098646,None,,,,,,,,,,,108,0,108,0,1676.4452852001414,,,,,,,,,,,,,,,,clips/clip_wurst_07_sub_0.mp4,audios/clip_wurst_07_sub_0.mp3,audiovisual,[],3,None,3,3.6744295000098646,None,,,120,A,2026-04-04_21h55.44.499,exp_sofc_final,,2026.1.2,60.100885344697375,2026-04-04 21h55.46.620284 +0200,
,109,0,109,,,,4,None,3.5894121997989714,None,,,,,,,,,,,109,0,109,0,1691.1647248999216,,,,,,,,,,,,,,,,clips/clip_hund_04_sub_0.mp4,audios/silence.mp3,visual,[],4,None,4,3.5894121997989714,None,,,120,A,2026-04-04_21h55.44.499,exp_sofc_final,,2026.1.2,60.100885344697375,2026-04-04 21h55.46.620284 +0200,
,110,0,110,,,,None,None,,,,,,,,,,,,,110,0,110,0,1705.155119500123,,,,,,,,,,,,,,,,clips/clip_weißt_14_nosub_2.mp4,audios/silence.mp3,visual,"[2.5448950002901256, 8.281565499957651]",None,None,,,,,,120,A,2026-04-04_21h55.44.499,exp_sofc_final,,2026.1.2,60.100885344697375,2026-04-04 21h55.46.620284 +0200,
,111,0,111,,,,None,None,,,,,,,,,,,,,111,0,111,0,1714.8758196001872,,,,,,,,,,,,,,,,clips/clip_herz_09_nosub_0.mp4,audios/silence.mp3,visual,[],None,None,,,,,,120,A,2026-04-04_21h55.44.499,exp_sofc_final,,2026.1.2,60.100885344697375,2026-04-04 21h55.46.620284 +0200,
,112,0,112,,,,None,None,,,,,,,,,,,,,112,0,112,0,1727.3103986000642,,,,,,,,,,,,,,,,clips/clip_lied_06_sub_1.mp4,audios/silence.mp3,visual,[],None,None,,,,,,120,A,2026-04-04_21h55.44.499,exp_sofc_final,,2026.1.2,60.100885344697375,2026-04-04 21h55.46.620284 +0200,
,113,0,113,,,,2,None,2.9934879997745156,None,,,,,,,,,,,113,0,113,0,1740.8583478000946,,,,,,,,,,,,,,,,clips/clip_wurst_21_nosub_0.mp4,audios/silence.mp3,visual,[0.5248099998570979],2,None,2,2.9934879997745156,None,,,120,A,2026-04-04_21h55.44.499,exp_sofc_final,,2026.1.2,60.100885344697375,2026-04-04 21h55.46.620284 +0200,
,114,0,114,,,,None,None,,,,,,,,,,,,,114,0,114,0,1755.288967399858,,,,,,,,,,,,,,,,clips/clip_wurst_29_nosub_1.mp4,audios/silence.mp3,visual,[],None,None,,,,,,120,A,2026-04-04_21h55.44.499,exp_sofc_final,,2026.1.2,60.100885344697375,2026-04-04 21h55.46.620284 +0200,
,115,0,115,,,,None,None,,,,,,,,,,,,,115,0,115,0,1768.1671338998713,,,,,,,,,,,,,,,,clips/clip_wurst_14_nosub_1.mp4,audios/clip_wurst_14_nosub_1.mp3,audiovisual,[7.652346099726856],None,None,,,,,,120,A,2026-04-04_21h55.44.499,exp_sofc_final,,2026.1.2,60.100885344697375,2026-04-04 21h55.46.620284 +0200,
,116,0,116,,,,None,None,,,,,,,,,,,,,116,0,116,0,1778.9930994999595,,,,,,,,,,,,,,,,clips/clip_claude_12_nosub_0.mp4,audios/clip_claude_12_nosub_0.mp3,audiovisual,[],None,None,,,,,,120,A,2026-04-04_21h55.44.499,exp_sofc_final,,2026.1.2,60.100885344697375,2026-04-04 21h55.46.620284 +0200,
,117,0,117,,,,None,None,,,,,,,,,,,,,117,0,117,0,1789.0235691000707,,,,,,,,,,,,,,,,clips/clip_lied_15_sub_2.mp4,audios/silence.mp3,visual,"[3.2472183001227677, 7.039256100077182]",None,None,,,,,,120,A,2026-04-04_21h55.44.499,exp_sofc_final,,2026.1.2,60.100885344697375,2026-04-04 21h55.46.620284 +0200,
,118,0,118,,,,None,None,,,,,,,,,,,,,118,0,118,0,1797.574471199885,,,,,,,,,,,,,,,,clips/clip_claude_09_sub_2.mp4,audios/silence.mp3,visual,"[3.9330750997178257, 8.80306199984625]",None,None,,,,,,120,A,2026-04-04_21h55.44.499,exp_sofc_final,,2026.1.2,60.100885344697375,2026-04-04 21h55.46.620284 +0200,
,119,0,119,,,,None,space,,,14.092286800034344,None,,,,,,,,,119,0,119,0,1808.6018711999059,,,,,,,,,,,,,,,,clips/clip_herz_10_nosub_0.mp4,audios/clip_herz_10_nosub_0.mp3,audiovisual,[],None,space,,,,14.092286800034344,None,120,A,2026-04-04_21h55.44.499,exp_sofc_final,,2026.1.2,60.100885344697375,2026-04-04 21h55.46.620284 +0200,
,120,0,120,,,,None,None,,,,,,,,,,,,,120,0,120,0,1833.64345209999,,,,,,,,,,,,,,,,clips/clip_holo_12_nosub_1.mp4,audios/silence.mp3,visual,[8.325582399964333],None,None,,,,,,120,A,2026-04-04_21h55.44.499,exp_sofc_final,,2026.1.2,60.100885344697375,2026-04-04 21h55.46.620284 +0200,
,121,0,121,,,,None,None,,,,,,,,,,,,,121,0,121,0,1844.4914102000184,,,,,,,,,,,,,,,,clips/clip_lied_01_nosub_1.mp4,audios/clip_lied_01_nosub_1.mp3,audiovisual,[4.755517600104213],None,None,,,,,,120,A,2026-04-04_21h55.44.499,exp_sofc_final,,2026.1.2,60.100885344697375,2026-04-04 21h55.46.620284 +0200,
,122,0,122,,,,None,None,,,,,,,,,,,,,122,0,122,0,1855.3576767998748,,,,,,,,,,,,,,,,clips/clip_claude_02_sub_1.mp4,audios/clip_claude_02_sub_1.mp3,audiovisual,[5.767406799830496],None,None,,,,,,120,A,2026-04-04_21h55.44.499,exp_sofc_final,,2026.1.2,60.100885344697375,2026-04-04 21h55.46.620284 +0200,
,123,0,123,,,,2,None,3.8882514000870287,None,,,,,,,,,,,123,0,123,0,1866.0171411000192,,,,,,,,,,,,,,,,clips/clip_weißt_11_nosub_0.mp4,audios/clip_weißt_11_nosub_0.mp3,audiovisual,[1.723601299803704],2,None,2,3.8882514000870287,None,,,120,A,2026-04-04_21h55.44.499,exp_sofc_final,,2026.1.2,60.100885344697375,2026-04-04 21h55.46.620284 +0200,
,124,0,124,,,,1,None,3.219489200040698,None,,,,,,,,,,,124,0,124,0,1880.925260100048,,,,,,,,,,,,,,,,clips/clip_wurst_17_nosub_0.mp4,audios/silence.mp3,visual,[],1,None,1,3.219489200040698,None,,,120,A,2026-04-04_21h55.44.499,exp_sofc_final,,2026.1.2,60.100885344697375,2026-04-04 21h55.46.620284 +0200,
,125,0,125,,,,3,None,8.712805600371212,None,,,,,,,,,,,125,0,125,0,1893.0605278001167,,,,,,,,,,,,,,,,clips/clip_claude_13_sub_0.mp4,audios/silence.mp3,visual,[],3,None,3,8.712805600371212,None,,,120,A,2026-04-04_21h55.44.499,exp_sofc_final,,2026.1.2,60.100885344697375,2026-04-04 21h55.46.620284 +0200,
,126,0,126,,,,1,None,2.8270540996454656,None,,,,,,,,,,,126,0,126,0,1911.9011734998785,,,,,,,,,,,,,,,,clips/clip_weißt_04_nosub_0.mp4,audios/clip_weißt_04_nosub_0.mp3,audiovisual,[],1,None,1,2.8270540996454656,None,,,120,A,2026-04-04_21h55.44.499,exp_sofc_final,,2026.1.2,60.100885344697375,2026-04-04 21h55.46.620284 +0200,
,127,0,127,,,,None,None,,,,,,,,,,,,,127,0,127,0,1925.7524041999131,,,,,,,,,,,,,,,,clips/clip_dampf_03_nosub_1.mp4,audios/silence.mp3,visual,[7.556740699801594],None,None,,,,,,120,A,2026-04-04_21h55.44.499,exp_sofc_final,,2026.1.2,60.100885344697375,2026-04-04 21h55.46.620284 +0200,
,128,0,128,,,,None,None,,,,,,,,,,,,,128,0,128,0,1934.1587606999092,,,,,,,,,,,,,,,,clips/clip_weißt_23_sub_1.mp4,audios/clip_weißt_23_sub_1.mp3,audiovisual,[8.382957400288433],None,None,,,,,,120,A,2026-04-04_21h55.44.499,exp_sofc_final,,2026.1.2,60.100885344697375,2026-04-04 21h55.46.620284 +0200,
,129,0,129,,,,None,None,,,,,,,,,,,,,129,0,129,0,1946.4202685998753,,,,,,,,,,,,,,,,clips/clip_hund_05_sub_0.mp4,audios/clip_hund_05_sub_0.mp3,audiovisual,[4.22015680000186],None,None,,,,,,120,A,2026-04-04_21h55.44.499,exp_sofc_final,,2026.1.2,60.100885344697375,2026-04-04 21h55.46.620284 +0200,
,130,0,130,,,,None,None,,,,,,,,,,,,,130,0,130,0,1958.2674654000439,,,,,,,,,,,,,,,,clips/clip_weißt_12_sub_1.mp4,audios/silence.mp3,visual,[9.082262699957937],None,None,,,,,,120,A,2026-04-04_21h55.44.499,exp_sofc_final,,2026.1.2,60.100885344697375,2026-04-04 21h55.46.620284 +0200,
,131,0,131,,,,None,None,,,,,,,,,,,,,131,0,131,0,1971.0600721999072,,,,,,,,,,,,,,,,clips/clip_holo_13_nosub_1.mp4,audios/clip_holo_13_nosub_1.mp3,audiovisual,[4.095053100027144],None,None,,,,,,120,A,2026-04-04_21h55.44.499,exp_sofc_final,,2026.1.2,60.100885344697375,2026-04-04 21h55.46.620284 +0200,
,132,0,132,,,,None,None,,,,,,,,,,,,,132,0,132,0,1983.776186299976,,,,,,,,,,,,,,,,clips/clip_hund_20_nosub_0.mp4,audios/clip_hund_20_nosub_0.mp3,audiovisual,[],None,None,,,,,,120,A,2026-04-04_21h55.44.499,exp_sofc_final,,2026.1.2,60.100885344697375,2026-04-04 21h55.46.620284 +0200,
,133,0,133,,,,None,None,,,,,,,,,,,,,133,0,133,0,1996.2260539000854,,,,,,,,,,,,,,,,clips/clip_hund_18_sub_1.mp4,audios/clip_hund_18_sub_1.mp3,audiovisual,"[0.1625076001510024, 6.913419799879193]",None,None,,,,,,120,A,2026-04-04_21h55.44.499,exp_sofc_final,,2026.1.2,60.100885344697375,2026-04-04 21h55.46.620284 +0200,
,134,0,134,,,,None,None,,,,,,,,,,,,,134,0,134,0,2007.0813152999617,,,,,,,,,,,,,,,,clips/clip_holo_16_nosub_1.mp4,audios/silence.mp3,visual,[10.280802399851382],None,None,,,,,,120,A,2026-04-04_21h55.44.499,exp_sofc_final,,2026.1.2,60.100885344697375,2026-04-04 21h55.46.620284 +0200,
,135,0,135,,,,None,None,,,,,,,,,,,,,135,0,135,0,2019.9326937003061,,,,,,,,,,,,,,,,clips/clip_hund_07_nosub_1.mp4,audios/silence.mp3,visual,[6.433278100099415],None,None,,,,,,120,A,2026-04-04_21h55.44.499,exp_sofc_final,,2026.1.2,60.100885344697375,2026-04-04 21h55.46.620284 +0200,
,136,0,136,,,,None,None,,,,,,,,,,,,,136,0,136,0,2032.5000299001113,,,,,,,,,,,,,,,,clips/clip_lied_14_nosub_0.mp4,audios/clip_lied_14_nosub_0.mp3,audiovisual,[],None,None,,,,,,120,A,2026-04-04_21h55.44.499,exp_sofc_final,,2026.1.2,60.100885344697375,2026-04-04 21h55.46.620284 +0200,
,137,0,137,,,,None,None,,,,,,,,,,,,,137,0,137,0,2043.0185401001945,,,,,,,,,,,,,,,,clips/clip_holo_04_nosub_2.mp4,audios/silence.mp3,visual,"[3.091436400078237, 6.9352837996557355]",None,None,,,,,,120,A,2026-04-04_21h55.44.499,exp_sofc_final,,2026.1.2,60.100885344697375,2026-04-04 21h55.46.620284 +0200,
,138,0,138,,,,None,None,,,,,,,,,,,,,138,0,138,0,2055.8864821000025,,,,,,,,,,,,,,,,clips/clip_wurst_16_sub_0.mp4,audios/clip_wurst_16_sub_0.mp3,audiovisual,[],None,None,,,,,,120,A,2026-04-04_21h55.44.499,exp_sofc_final,,2026.1.2,60.100885344697375,2026-04-04 21h55.46.620284 +0200,
,139,0,139,,,,None,None,,,,,,,,,,,,,139,0,139,0,2066.7686614003032,,,,,,,,,,,,,,,,clips/clip_hund_01_nosub_0.mp4,audios/silence.mp3,visual,[],None,None,,,,,,120,A,2026-04-04_21h55.44.499,exp_sofc_final,,2026.1.2,60.100885344697375,2026-04-04 21h55.46.620284 +0200,
,140,0,140,,,,None,None,,,,,,,,,,,,,140,0,140,0,2078.4881505002268,,,,,,,,,,,,,,,,clips/clip_holo_08_nosub_2.mp4,audios/silence.mp3,visual,"[4.152042800094932, 9.034118900075555]",None,None,,,,,,120,A,2026-04-04_21h55.44.499,exp_sofc_final,,2026.1.2,60.100885344697375,2026-04-04 21h55.46.620284 +0200,
,141,0,141,,,,None,None,,,,,,,,,,,,,141,0,141,0,2090.1046535000205,,,,,,,,,,,,,,,,clips/clip_hund_17_sub_1.mp4,audios/silence.mp3,visual,[9.960467500146478],None,None,,,,,,120,A,2026-04-04_21h55.44.499,exp_sofc_final,,2026.1.2,60.100885344697375,2026-04-04 21h55.46.620284 +0200,
,142,0,142,,,,3,None,7.191290900111198,None,,,,,,,,,,,142,0,142,0,2103.238145099953,,,,,,,,,,,,,,,,clips/clip_holo_03_sub_1.mp4,audios/clip_holo_03_sub_1.mp3,audiovisual,[7.412861800286919],3,None,3,7.191290900111198,None,,,120,A,2026-04-04_21h55.44.499,exp_sofc_final,,2026.1.2,60.100885344697375,2026-04-04 21h55.46.620284 +0200,
,143,0,143,,,,None,None,,,,,,,,,,,,,143,0,143,0,2120.941335100215,,,,,,,,,,,,,,,,clips/clip_hund_22_sub_1.mp4,audios/clip_hund_22_sub_1.mp3,audiovisual,[8.646323099732399],None,None,,,,,,120,A,2026-04-04_21h55.44.499,exp_sofc_final,,2026.1.2,60.100885344697375,2026-04-04 21h55.46.620284 +0200,
,144,0,144,,,,None,None,,,,,,,,,,,,,144,0,144,0,2131.764909700025,,,,,,,,,,,,,,,,clips/clip_herz_12_sub_0.mp4,audios/clip_herz_12_sub_0.mp3,audiovisual,[5.8322441997006536],None,None,,,,,,120,A,2026-04-04_21h55.44.499,exp_sofc_final,,2026.1.2,60.100885344697375,2026-04-04 21h55.46.620284 +0200,
,145,0,145,,,,None,None,,,,,,,,,,,,,145,0,145,0,2141.7878032000735,,,,,,,,,,,,,,,,clips/clip_claude_10_sub_0.mp4,audios/clip_claude_10_sub_0.mp3,audiovisual,[],None,None,,,,,,120,A,2026-04-04_21h55.44.499,exp_sofc_final,,2026.1.2,60.100885344697375,2026-04-04 21h55.46.620284 +0200,
,146,0,146,,,,None,None,,,,,,,,,,,,,146,0,146,0,2153.9185728998855,,,,,,,,,,,,,,,,clips/clip_claude_25_sub_0.mp4,audios/silence.mp3,visual,[0.2966070999391377],None,None,,,,,,120,A,2026-04-04_21h55.44.499,exp_sofc_final,,2026.1.2,60.100885344697375,2026-04-04 21h55.46.620284 +0200,
,147,0,147,,,,None,None,,,,,,,,,,,,,147,0,147,0,2165.1057636998594,,,,,,,,,,,,,,,,clips/clip_holo_21_nosub_1.mp4,audios/clip_holo_21_nosub_1.mp3,audiovisual,[4.180201000068337],None,None,,,,,,120,A,2026-04-04_21h55.44.499,exp_sofc_final,,2026.1.2,60.100885344697375,2026-04-04 21h55.46.620284 +0200,
,148,0,148,,,,None,None,,,,,,,,,,,,,148,0,148,0,2176.052572700195,,,,,,,,,,,,,,,,clips/clip_claude_16_nosub_1.mp4,audios/clip_claude_16_nosub_1.mp3,audiovisual,[8.874429199844599],None,None,,,,,,120,A,2026-04-04_21h55.44.499,exp_sofc_final,,2026.1.2,60.100885344697375,2026-04-04 21h55.46.620284 +0200,
,149,0,149,,,,None,None,,,,,,,,,,,,,149,0,149,0,2188.0709746000357,,,,,,,,,,,,,,,,clips/clip_weißt_19_nosub_1.mp4,audios/silence.mp3,visual,[],None,None,,,,,,120,A,2026-04-04_21h55.44.499,exp_sofc_final,,2026.1.2,60.100885344697375,2026-04-04 21h55.46.620284 +0200,
,150,0,150,,,,None,None,,,,,,,,,,,,,150,0,150,0,2198.977819399908,,,,,,,,,,,,,,,,clips/clip_wurst_13_nosub_0.mp4,audios/silence.mp3,visual,[],None,None,,,,,,120,A,2026-04-04_21h55.44.499,exp_sofc_final,,2026.1.2,60.100885344697375,2026-04-04 21h55.46.620284 +0200,
,151,0,151,,,,None,None,,,,,,,,,,,,,151,0,151,0,2209.633740799967,,,,,,,,,,,,,,,,clips/clip_wurst_36_sub_0.mp4,audios/clip_wurst_36_sub_0.mp3,audiovisual,[],None,None,,,,,,120,A,2026-04-04_21h55.44.499,exp_sofc_final,,2026.1.2,60.100885344697375,2026-04-04 21h55.46.620284 +0200,
,152,0,152,,,,None,None,,,,,,,,,,,,,152,0,152,0,2220.2186185000464,,,,,,,,,,,,,,,,clips/clip_holo_14_sub_0.mp4,audios/silence.mp3,visual,[],None,None,,,,,,120,A,2026-04-04_21h55.44.499,exp_sofc_final,,2026.1.2,60.100885344697375,2026-04-04 21h55.46.620284 +0200,
,153,0,153,,,,None,None,,,,,,,,,,,,,153,0,153,0,2231.1976128001697,,,,,,,,,,,,,,,,clips/clip_weißt_30_nosub_2.mp4,audios/clip_weißt_30_nosub_2.mp3,audiovisual,"[3.0725845000706613, 11.859054999891669]",None,None,,,,,,120,A,2026-04-04_21h55.44.499,exp_sofc_final,,2026.1.2,60.100885344697375,2026-04-04 21h55.46.620284 +0200,
,154,0,154,,,,None,None,,,,,,,,,,,,,154,0,154,0,2243.9808855000883,,,,,,,,,,,,,,,,clips/clip_wurst_05_nosub_0.mp4,audios/clip_wurst_05_nosub_0.mp3,audiovisual,[6.2532293000258505],None,None,,,,,,120,A,2026-04-04_21h55.44.499,exp_sofc_final,,2026.1.2,60.100885344697375,2026-04-04 21h55.46.620284 +0200,
,155,0,155,,,,None,None,,,,,,,,,,,,,155,0,155,0,2253.607596000191,,,,,,,,,,,,,,,,clips/clip_hund_23_nosub_1.mp4,audios/silence.mp3,visual,[],None,None,,,,,,120,A,2026-04-04_21h55.44.499,exp_sofc_final,,2026.1.2,60.100885344697375,2026-04-04 21h55.46.620284 +0200,
,156,0,156,,,,None,None,,,,,,,,,,,,,156,0,156,0,2265.328775800299,,,,,,,,,,,,,,,,clips/clip_lied_03_sub_1.mp4,audios/clip_lied_03_sub_1.mp3,audiovisual,[4.429075699765235],None,None,,,,,,120,A,2026-04-04_21h55.44.499,exp_sofc_final,,2026.1.2,60.100885344697375,2026-04-04 21h55.46.620284 +0200,
,157,0,157,,,,None,None,,,,,,,,,,,,,157,0,157,0,2276.860499500297,,,,,,,,,,,,,,,,clips/clip_claude_20_nosub_1.mp4,audios/clip_claude_20_nosub_1.mp3,audiovisual,"[0.5782155999913812, 6.729080300312489]",None,None,,,,,,120,A,2026-04-04_21h55.44.499,exp_sofc_final,,2026.1.2,60.100885344697375,2026-04-04 21h55.46.620284 +0200,
,158,0,158,,,,None,None,,,,,,,,,,,,,158,0,158,0,2289.6983799003065,,,,,,,,,,,,,,,,clips/clip_wurst_25_nosub_1.mp4,audios/silence.mp3,visual,[],None,None,,,,,,120,A,2026-04-04_21h55.44.499,exp_sofc_final,,2026.1.2,60.100885344697375,2026-04-04 21h55.46.620284 +0200,
,159,0,159,,,,None,None,,,,,,,,,,,,,159,0,159,0,2301.801867400296,,,,,,,,,,,,,,,,clips/clip_claude_04_nosub_2.mp4,audios/clip_claude_04_nosub_2.mp3,audiovisual,[8.555163600016385],None,None,,,,,,120,A,2026-04-04_21h55.44.499,exp_sofc_final,,2026.1.2,60.100885344697375,2026-04-04 21h55.46.620284 +0200,
,160,0,160,,,,,,,,,,,,,,,,,,160,0,160,0,2311.655022500083,,,,,,,,,,,,,,,,clips/clip_lied_17_nosub_2.mp4,audios/silence.mp3,visual,,,,,,,,,,,,,,,,,
