instruction_text,thisN,thisTrialN,thisRepN,prac_attention_resp.keys,prac_attention_resp.rt,prac_attention_resp.duration,exp_atttention_resp.keys,exp_atttention_resp.rt,exp_atttention_resp.duration,exp_pause_resp.keys,exp_pause_resp.rt,exp_pause_resp.duration,instruction_trial.thisRepN,instruction_trial.thisTrialN,instruction_trial.thisN,instruction_trial.thisIndex,practice_trials.thisRepN,practice_trials.thisTrialN,practice_trials.thisN,practice_trials.thisIndex,experiment_trials.thisRepN,experiment_trials.thisTrialN,experiment_trials.thisN,experiment_trials.thisIndex,thisRow.t,notes,piloting,assigned_ls_group,slider_informed_consent.response,Practice_clip_name,Practice_video_used,Practice_audio_used,Practice_modality,Practice_subtitles,Practice_attention_check,Practice_all_cut_rts,Practice_correct_key_required,practice_trials.prac_attention_resp.keys,practice_trials.prac_attention_resp.rt,practice_trials.prac_attention_resp.duration,video_used,audio_used,condition_modality,all_cut_rts,correct_key_required,experiment_trials.exp_atttention_resp.keys,experiment_trials.exp_atttention_resp.rt,experiment_trials.exp_atttention_resp.duration,experiment_trials.exp_pause_resp.keys,experiment_trials.exp_pause_resp.rt,experiment_trials.exp_pause_resp.duration,participant,session,date,expName,expVersion,psychopyVersion,frameRate,expStart,
"Einverständniserklärung

Bitte lesen Sie die folgende Erklärung aufmerksam durch:

Ich bestätige, dass ich über 18 Jahre alt bin und ausreichend Zeit hatte, mich für die Teilnahme zu entscheiden. Ich wurde über die Erhebung, Verarbeitung und öffentliche Zugänglichmachung meiner anonymisierten Daten angemessen informiert.
Ich bin mir bewusst, dass ich das Experiment jederzeit abbrechen kann.

(Drücken Sie die Leertaste, um fortzufahren)",4,4,0,,,,,,,,,,0,4,4,4,,,,,,,,,19.665921799838543,,False,1,ich stimme zu,,,,,,,,,,,,,,,,,,,,,,,121,A,2026-04-05_16h16.17.595,exp_sofc_final,,2026.1.2,60.017777303184225,2026-04-05 16h16.19.092893 +0200,
,,,,,,,,,,,,,,,,,,,,,,,,,,,,,,,,,,,,,,,,,,,,,,,,,,,,121,A,2026-04-05_16h16.17.595,exp_sofc_final,,2026.1.2,60.017777303184225,2026-04-05 16h16.19.092893 +0200,
,0,0,0,3,7.763604899868369,None,,,,,,,,,,,0,0,0,0,,,,,27.383474600035697,,,,,clip_hund_26_sub_1,clips/clip_hund_26_sub_1.mp4,audios/silence.mp3,visual,sub,True,[],3,3,7.763604899868369,None,,,,,,,,,,,,121,A,2026-04-05_16h16.17.595,exp_sofc_final,,2026.1.2,60.017777303184225,2026-04-05 16h16.19.092893 +0200,
,1,0,1,None,,,,,,,,,,,,,1,0,1,0,,,,,44.864449199754745,,,,,clip_weißt_05_sub_0,clips/clip_weißt_05_sub_0.mp4,audios/clip_weißt_05_sub_0.mp3,audiovisual,sub,False,[],,None,,,,,,,,,,,,,,121,A,2026-04-05_16h16.17.595,exp_sofc_final,,2026.1.2,60.017777303184225,2026-04-05 16h16.19.092893 +0200,
,2,0,2,None,,,,,,,,,,,,,2,0,2,0,,,,,55.44196100020781,,,,,clip_weißt_21_nosub_0,clips/clip_weißt_21_nosub_0.mp4,audios/silence.mp3,visual,nosub,False,[1.6696548000909388],,None,,,,,,,,,,,,,,121,A,2026-04-05_16h16.17.595,exp_sofc_final,,2026.1.2,60.017777303184225,2026-04-05 16h16.19.092893 +0200,
,3,0,3,3,7.027044999878854,None,,,,,,,,,,,3,0,3,0,,,,,66.43128640018404,,,,,clip_weißt_10_nosub_1,clips/clip_weißt_10_nosub_1.mp4,audios/clip_weißt_10_nosub_1.mp3,audiovisual,nosub,True,[],3,3,7.027044999878854,None,,,,,,,,,,,,121,A,2026-04-05_16h16.17.595,exp_sofc_final,,2026.1.2,60.017777303184225,2026-04-05 16h16.19.092893 +0200,
,4,0,4,None,,,,,,,,,,,,,4,0,4,0,,,,,85.30589730013162,,,,,clip_hund_31_sub_0,clips/clip_hund_31_sub_0.mp4,audios/silence.mp3,visual,sub,False,[],,None,,,,,,,,,,,,,,121,A,2026-04-05_16h16.17.595,exp_sofc_final,,2026.1.2,60.017777303184225,2026-04-05 16h16.19.092893 +0200,
,5,0,5,None,,,,,,,,,,,,,5,0,5,0,,,,,95.92471719998866,,,,,clip_wurst_09_sub_1,clips/clip_wurst_09_sub_1.mp4,audios/clip_wurst_09_sub_1.mp3,audiovisual,sub,False,[5.8849589000456035],,None,,,,,,,,,,,,,,121,A,2026-04-05_16h16.17.595,exp_sofc_final,,2026.1.2,60.017777303184225,2026-04-05 16h16.19.092893 +0200,
,6,0,6,None,,,,,,,,,,,,,6,0,6,0,,,,,107.74238209985197,,,,,clip_weißt_18_nosub_1,clips/clip_weißt_18_nosub_1.mp4,audios/silence.mp3,visual,nosub,False,[6.903508999850601],,None,,,,,,,,,,,,,,121,A,2026-04-05_16h16.17.595,exp_sofc_final,,2026.1.2,60.017777303184225,2026-04-05 16h16.19.092893 +0200,
,7,0,7,1,6.259495900012553,None,,,,,,,,,,,7,0,7,0,,,,,120.61306039988995,,,,,clip_hund_02_sub_1,clips/clip_hund_02_sub_1.mp4,audios/clip_hund_02_sub_1.mp3,audiovisual,sub,True,"[0.4865101999603212, 9.496645299717784]",2,1,6.259495900012553,None,,,,,,,,,,,,121,A,2026-04-05_16h16.17.595,exp_sofc_final,,2026.1.2,60.017777303184225,2026-04-05 16h16.19.092893 +0200,
,8,0,8,None,,,,,,,,,,,,,8,0,8,0,,,,,137.7406548000872,,,,,clip_hund_06_nosub_0,clips/clip_hund_06_nosub_0.mp4,audios/clip_hund_06_nosub_0.mp3,audiovisual,nosub,False,[],,None,,,,,,,,,,,,,,121,A,2026-04-05_16h16.17.595,exp_sofc_final,,2026.1.2,60.017777303184225,2026-04-05 16h16.19.092893 +0200,
,9,0,9,None,,,,,,,,,,,,,9,0,9,0,,,,,149.4302902999334,,,,,clip_hund_28_nosub_0,clips/clip_hund_28_nosub_0.mp4,audios/clip_hund_28_nosub_0.mp3,audiovisual,nosub,False,[],,None,,,,,,,,,,,,,,121,A,2026-04-05_16h16.17.595,exp_sofc_final,,2026.1.2,60.017777303184225,2026-04-05 16h16.19.092893 +0200,
,10,0,10,None,,,,,,,,,,,,,10,0,10,0,,,,,160.0924784000963,,,,,clip_weißt_09_sub_1,clips/clip_weißt_09_sub_1.mp4,audios/silence.mp3,visual,sub,False,[6.188252599909902],,None,,,,,,,,,,,,,,121,A,2026-04-05_16h16.17.595,exp_sofc_final,,2026.1.2,60.017777303184225,2026-04-05 16h16.19.092893 +0200,
,11,0,11,2,5.4735270999372005,None,,,,,,,,,,,11,0,11,0,,,,,169.96551690017805,,,,,clip_hund_25_sub_1,clips/clip_hund_25_sub_1.mp4,audios/silence.mp3,visual,sub,True,[6.5755074000917375],2,2,5.4735270999372005,None,,,,,,,,,,,,121,A,2026-04-05_16h16.17.595,exp_sofc_final,,2026.1.2,60.017777303184225,2026-04-05 16h16.19.092893 +0200,
,,,,,,,,,,,,,,,,,,,,,,,,,,,,,,,,,,,,,,,,,,,,,,,,,,,,121,A,2026-04-05_16h16.17.595,exp_sofc_final,,2026.1.2,60.017777303184225,2026-04-05 16h16.19.092893 +0200,
,0,0,0,,,,3,4.74364549992606,None,None,,,,,,,,,,,0,0,0,0,239.55627800012007,,,,,,,,,,,,,,,,clips/clip_herz_11_nosub_0.mp4,audios/clip_herz_11_nosub_0.mp3,audiovisual,[5.029068499803543],4,3,4.74364549992606,None,None,,,121,A,2026-04-05_16h16.17.595,exp_sofc_final,,2026.1.2,60.017777303184225,2026-04-05 16h16.19.092893 +0200,
,1,0,1,,,,None,,,None,,,,,,,,,,,1,0,1,0,254.47448370000347,,,,,,,,,,,,,,,,clips/clip_hund_29_sub_0.mp4,audios/silence.mp3,visual,[10.686121900100261],,None,,,None,,,121,A,2026-04-05_16h16.17.595,exp_sofc_final,,2026.1.2,60.017777303184225,2026-04-05 16h16.19.092893 +0200,
,2,0,2,,,,2,4.09449280006811,None,None,,,,,,,,,,,2,0,2,0,266.6790771000087,,,,,,,,,,,,,,,,clips/clip_lied_03_sub_1.mp4,audios/silence.mp3,visual,[4.43398159975186],3,2,4.09449280006811,None,None,,,121,A,2026-04-05_16h16.17.595,exp_sofc_final,,2026.1.2,60.017777303184225,2026-04-05 16h16.19.092893 +0200,
,3,0,3,,,,None,,,None,,,,,,,,,,,3,0,3,0,282.1779275997542,,,,,,,,,,,,,,,,clips/clip_hund_18_sub_1.mp4,audios/silence.mp3,visual,[7.086483799852431],,None,,,None,,,121,A,2026-04-05_16h16.17.595,exp_sofc_final,,2026.1.2,60.017777303184225,2026-04-05 16h16.19.092893 +0200,
,4,0,4,,,,None,,,None,,,,,,,,,,,4,0,4,0,293.38045870000497,,,,,,,,,,,,,,,,clips/clip_weißt_30_nosub_2.mp4,audios/silence.mp3,visual,"[3.0980983995832503, 11.98874029982835]",,None,,,None,,,121,A,2026-04-05_16h16.17.595,exp_sofc_final,,2026.1.2,60.017777303184225,2026-04-05 16h16.19.092893 +0200,
,5,0,5,,,,None,,,None,,,,,,,,,,,5,0,5,0,305.9487466001883,,,,,,,,,,,,,,,,clips/clip_hund_07_sub_1.mp4,audios/clip_hund_07_sub_1.mp3,audiovisual,[6.627903599757701],,None,,,None,,,121,A,2026-04-05_16h16.17.595,exp_sofc_final,,2026.1.2,60.017777303184225,2026-04-05 16h16.19.092893 +0200,
,6,0,6,,,,None,,,None,,,,,,,,,,,6,0,6,0,318.4038439001888,,,,,,,,,,,,,,,,clips/clip_herz_07_nosub_2.mp4,audios/clip_herz_07_nosub_2.mp3,audiovisual,"[4.087256799917668, 10.730202000122517]",,None,,,None,,,121,A,2026-04-05_16h16.17.595,exp_sofc_final,,2026.1.2,60.017777303184225,2026-04-05 16h16.19.092893 +0200,
,7,0,7,,,,None,,,None,,,,,,,,,,,7,0,7,0,331.2466369001195,,,,,,,,,,,,,,,,clips/clip_holo_10_nosub_1.mp4,audios/clip_holo_10_nosub_1.mp3,audiovisual,[6.039462599903345],,None,,,None,,,121,A,2026-04-05_16h16.17.595,exp_sofc_final,,2026.1.2,60.017777303184225,2026-04-05 16h16.19.092893 +0200,
,8,0,8,,,,None,,,None,,,,,,,,,,,8,0,8,0,342.04211759986356,,,,,,,,,,,,,,,,clips/clip_wurst_11_nosub_0.mp4,audios/clip_wurst_11_nosub_0.mp3,audiovisual,[0.20966959977522492],,None,,,None,,,121,A,2026-04-05_16h16.17.595,exp_sofc_final,,2026.1.2,60.017777303184225,2026-04-05 16h16.19.092893 +0200,
,9,0,9,,,,None,,,None,,,,,,,,,,,9,0,9,0,354.9244931000285,,,,,,,,,,,,,,,,clips/clip_wurst_23_nosub_2.mp4,audios/clip_wurst_23_nosub_2.mp3,audiovisual,"[4.514902400318533, 7.743810400366783]",,None,,,None,,,121,A,2026-04-05_16h16.17.595,exp_sofc_final,,2026.1.2,60.017777303184225,2026-04-05 16h16.19.092893 +0200,
,10,0,10,,,,None,,,None,,,,,,,,,,,10,0,10,0,366.2336757001467,,,,,,,,,,,,,,,,clips/clip_herz_14_nosub_0.mp4,audios/silence.mp3,visual,[],,None,,,None,,,121,A,2026-04-05_16h16.17.595,exp_sofc_final,,2026.1.2,60.017777303184225,2026-04-05 16h16.19.092893 +0200,
,11,0,11,,,,None,,,None,,,,,,,,,,,11,0,11,0,377.61833339976147,,,,,,,,,,,,,,,,clips/clip_weißt_03_sub_0.mp4,audios/clip_weißt_03_sub_0.mp3,audiovisual,[],,None,,,None,,,121,A,2026-04-05_16h16.17.595,exp_sofc_final,,2026.1.2,60.017777303184225,2026-04-05 16h16.19.092893 +0200,
,12,0,12,,,,1,7.353037100285292,None,None,,,,,,,,,,,12,0,12,0,390.4294904000126,,,,,,,,,,,,,,,,clips/clip_wurst_07_sub_0.mp4,audios/silence.mp3,visual,[],3,1,7.353037100285292,None,None,,,121,A,2026-04-05_16h16.17.595,exp_sofc_final,,2026.1.2,60.017777303184225,2026-04-05 16h16.19.092893 +0200,
,13,0,13,,,,None,,,None,,,,,,,,,,,13,0,13,0,408.8543237000704,,,,,,,,,,,,,,,,clips/clip_hund_27_nosub_1.mp4,audios/clip_hund_27_nosub_1.mp3,audiovisual,[5.224731900263578],,None,,,None,,,121,A,2026-04-05_16h16.17.595,exp_sofc_final,,2026.1.2,60.017777303184225,2026-04-05 16h16.19.092893 +0200,
,14,0,14,,,,2,4.456465699709952,None,None,,,,,,,,,,,14,0,14,0,419.94947660015896,,,,,,,,,,,,,,,,clips/clip_claude_07_sub_0.mp4,audios/clip_claude_07_sub_0.mp3,audiovisual,[],2,2,4.456465699709952,None,None,,,121,A,2026-04-05_16h16.17.595,exp_sofc_final,,2026.1.2,60.017777303184225,2026-04-05 16h16.19.092893 +0200,
,15,0,15,,,,None,,,None,,,,,,,,,,,15,0,15,0,435.27617370011285,,,,,,,,,,,,,,,,clips/clip_holo_20_sub_1.mp4,audios/clip_holo_20_sub_1.mp3,audiovisual,[],,None,,,None,,,121,A,2026-04-05_16h16.17.595,exp_sofc_final,,2026.1.2,60.017777303184225,2026-04-05 16h16.19.092893 +0200,
,16,0,16,,,,None,,,None,,,,,,,,,,,16,0,16,0,445.5169374998659,,,,,,,,,,,,,,,,clips/clip_wurst_01_nosub_0.mp4,audios/clip_wurst_01_nosub_0.mp3,audiovisual,[],,None,,,None,,,121,A,2026-04-05_16h16.17.595,exp_sofc_final,,2026.1.2,60.017777303184225,2026-04-05 16h16.19.092893 +0200,
,17,0,17,,,,None,,,None,,,,,,,,,,,17,0,17,0,456.2549711000174,,,,,,,,,,,,,,,,clips/clip_wurst_18_nosub_0.mp4,audios/silence.mp3,visual,[],,None,,,None,,,121,A,2026-04-05_16h16.17.595,exp_sofc_final,,2026.1.2,60.017777303184225,2026-04-05 16h16.19.092893 +0200,
,18,0,18,,,,None,,,None,,,,,,,,,,,18,0,18,0,467.09999629994854,,,,,,,,,,,,,,,,clips/clip_claude_10_sub_0.mp4,audios/silence.mp3,visual,[],,None,,,None,,,121,A,2026-04-05_16h16.17.595,exp_sofc_final,,2026.1.2,60.017777303184225,2026-04-05 16h16.19.092893 +0200,
,19,0,19,,,,None,,,None,,,,,,,,,,,19,0,19,0,479.2305990001187,,,,,,,,,,,,,,,,clips/clip_hund_01_sub_0.mp4,audios/clip_hund_01_sub_0.mp3,audiovisual,[],,None,,,None,,,121,A,2026-04-05_16h16.17.595,exp_sofc_final,,2026.1.2,60.017777303184225,2026-04-05 16h16.19.092893 +0200,
,20,0,20,,,,None,,,None,,,,,,,,,,,20,0,20,0,490.8500735000707,,,,,,,,,,,,,,,,clips/clip_wurst_06_nosub_2.mp4,audios/clip_wurst_06_nosub_2.mp3,audiovisual,[8.450786599889398],,None,,,None,,,121,A,2026-04-05_16h16.17.595,exp_sofc_final,,2026.1.2,60.017777303184225,2026-04-05 16h16.19.092893 +0200,
,21,0,21,,,,None,,,None,,,,,,,,,,,21,0,21,0,502.8087721997872,,,,,,,,,,,,,,,,clips/clip_herz_03_nosub_2.mp4,audios/clip_herz_03_nosub_2.mp3,audiovisual,"[4.7358594997785985, 11.451137300115079]",,None,,,None,,,121,A,2026-04-05_16h16.17.595,exp_sofc_final,,2026.1.2,60.017777303184225,2026-04-05 16h16.19.092893 +0200,
,22,0,22,,,,None,,,None,,,,,,,,,,,22,0,22,0,516.0866865999997,,,,,,,,,,,,,,,,clips/clip_holo_23_sub_1.mp4,audios/silence.mp3,visual,[],,None,,,None,,,121,A,2026-04-05_16h16.17.595,exp_sofc_final,,2026.1.2,60.017777303184225,2026-04-05 16h16.19.092893 +0200,
,23,0,23,,,,None,,,None,,,,,,,,,,,23,0,23,0,526.9390961001627,,,,,,,,,,,,,,,,clips/clip_lied_01_nosub_1.mp4,audios/silence.mp3,visual,[5.193583299871534],,None,,,None,,,121,A,2026-04-05_16h16.17.595,exp_sofc_final,,2026.1.2,60.017777303184225,2026-04-05 16h16.19.092893 +0200,
,24,0,24,,,,None,,,None,,,,,,,,,,,24,0,24,0,537.8522036001086,,,,,,,,,,,,,,,,clips/clip_herz_04_sub_0.mp4,audios/silence.mp3,visual,"[0.5408369996584952, 7.949645199812949]",,None,,,None,,,121,A,2026-04-05_16h16.17.595,exp_sofc_final,,2026.1.2,60.017777303184225,2026-04-05 16h16.19.092893 +0200,
,25,0,25,,,,None,,,None,,,,,,,,,,,25,0,25,0,549.7049942999147,,,,,,,,,,,,,,,,clips/clip_holo_01_nosub_1.mp4,audios/silence.mp3,visual,[4.231651700101793],,None,,,None,,,121,A,2026-04-05_16h16.17.595,exp_sofc_final,,2026.1.2,60.017777303184225,2026-04-05 16h16.19.092893 +0200,
,26,0,26,,,,None,,,None,,,,,,,,,,,26,0,26,0,559.8220132999122,,,,,,,,,,,,,,,,clips/clip_herz_17_sub_0.mp4,audios/clip_herz_17_sub_0.mp3,audiovisual,[7.804599599912763],,None,,,None,,,121,A,2026-04-05_16h16.17.595,exp_sofc_final,,2026.1.2,60.017777303184225,2026-04-05 16h16.19.092893 +0200,
,27,0,27,,,,None,,,None,,,,,,,,,,,27,0,27,0,568.8121996000409,,,,,,,,,,,,,,,,clips/clip_hund_35_sub_0.mp4,audios/silence.mp3,visual,[],,None,,,None,,,121,A,2026-04-05_16h16.17.595,exp_sofc_final,,2026.1.2,60.017777303184225,2026-04-05 16h16.19.092893 +0200,
,28,0,28,,,,None,,,None,,,,,,,,,,,28,0,28,0,580.113446299918,,,,,,,,,,,,,,,,clips/clip_claude_17_nosub_1.mp4,audios/clip_claude_17_nosub_1.mp3,audiovisual,[10.269291100092232],,None,,,None,,,121,A,2026-04-05_16h16.17.595,exp_sofc_final,,2026.1.2,60.017777303184225,2026-04-05 16h16.19.092893 +0200,
,29,0,29,,,,None,,,None,,,,,,,,,,,29,0,29,0,593.3073292998597,,,,,,,,,,,,,,,,clips/clip_weißt_29_sub_1.mp4,audios/clip_weißt_29_sub_1.mp3,audiovisual,[7.017071799840778],,None,,,None,,,121,A,2026-04-05_16h16.17.595,exp_sofc_final,,2026.1.2,60.017777303184225,2026-04-05 16h16.19.092893 +0200,
,30,0,30,,,,None,,,None,,,,,,,,,,,30,0,30,0,605.2277806000784,,,,,,,,,,,,,,,,clips/clip_herz_16_sub_0.mp4,audios/silence.mp3,visual,[],,None,,,None,,,121,A,2026-04-05_16h16.17.595,exp_sofc_final,,2026.1.2,60.017777303184225,2026-04-05 16h16.19.092893 +0200,
,31,0,31,,,,None,,,None,,,,,,,,,,,31,0,31,0,615.0595895000733,,,,,,,,,,,,,,,,clips/clip_wurst_28_sub_1.mp4,audios/silence.mp3,visual,[0.6150954002514482],,None,,,None,,,121,A,2026-04-05_16h16.17.595,exp_sofc_final,,2026.1.2,60.017777303184225,2026-04-05 16h16.19.092893 +0200,
,32,0,32,,,,None,,,None,,,,,,,,,,,32,0,32,0,626.2030282001942,,,,,,,,,,,,,,,,clips/clip_holo_21_nosub_1.mp4,audios/silence.mp3,visual,[],,None,,,None,,,121,A,2026-04-05_16h16.17.595,exp_sofc_final,,2026.1.2,60.017777303184225,2026-04-05 16h16.19.092893 +0200,
,33,0,33,,,,None,,,None,,,,,,,,,,,33,0,33,0,637.291417399887,,,,,,,,,,,,,,,,clips/clip_claude_18_sub_0.mp4,audios/silence.mp3,visual,[],,None,,,None,,,121,A,2026-04-05_16h16.17.595,exp_sofc_final,,2026.1.2,60.017777303184225,2026-04-05 16h16.19.092893 +0200,
,34,0,34,,,,None,,,None,,,,,,,,,,,34,0,34,0,647.101754900068,,,,,,,,,,,,,,,,clips/clip_lied_09_nosub_1.mp4,audios/silence.mp3,visual,[],,None,,,None,,,121,A,2026-04-05_16h16.17.595,exp_sofc_final,,2026.1.2,60.017777303184225,2026-04-05 16h16.19.092893 +0200,
,35,0,35,,,,None,,,None,,,,,,,,,,,35,0,35,0,658.3828157000244,,,,,,,,,,,,,,,,clips/clip_wurst_29_sub_1.mp4,audios/clip_wurst_29_sub_1.mp3,audiovisual,[],,None,,,None,,,121,A,2026-04-05_16h16.17.595,exp_sofc_final,,2026.1.2,60.017777303184225,2026-04-05 16h16.19.092893 +0200,
,36,0,36,,,,1,4.276259400416166,None,None,,,,,,,,,,,36,0,36,0,671.215017999988,,,,,,,,,,,,,,,,clips/clip_wurst_27_nosub_1.mp4,audios/clip_wurst_27_nosub_1.mp3,audiovisual,[6.109284800011665],1,1,4.276259400416166,None,None,,,121,A,2026-04-05_16h16.17.595,exp_sofc_final,,2026.1.2,60.017777303184225,2026-04-05 16h16.19.092893 +0200,
,37,0,37,,,,None,,,None,,,,,,,,,,,37,0,37,0,686.5671435999684,,,,,,,,,,,,,,,,clips/clip_lied_08_sub_1.mp4,audios/clip_lied_08_sub_1.mp3,audiovisual,[7.526505900081247],,None,,,None,,,121,A,2026-04-05_16h16.17.595,exp_sofc_final,,2026.1.2,60.017777303184225,2026-04-05 16h16.19.092893 +0200,
,38,0,38,,,,3,4.010757099837065,None,None,,,,,,,,,,,38,0,38,0,696.5623675999232,,,,,,,,,,,,,,,,clips/clip_claude_21_nosub_1.mp4,audios/clip_claude_21_nosub_1.mp3,audiovisual,[9.725308800116181],3,3,4.010757099837065,None,None,,,121,A,2026-04-05_16h16.17.595,exp_sofc_final,,2026.1.2,60.017777303184225,2026-04-05 16h16.19.092893 +0200,
,39,0,39,,,,None,,,None,,,,,,,,,,,39,0,39,0,714.3439167998731,,,,,,,,,,,,,,,,clips/clip_herz_09_sub_0.mp4,audios/clip_herz_09_sub_0.mp3,audiovisual,[],,None,,,None,,,121,A,2026-04-05_16h16.17.595,exp_sofc_final,,2026.1.2,60.017777303184225,2026-04-05 16h16.19.092893 +0200,
,40,0,40,,,,None,,,None,,,,,,,,,,,40,0,40,0,726.6964519000612,,,,,,,,,,,,,,,,clips/clip_wurst_17_sub_0.mp4,audios/clip_wurst_17_sub_0.mp3,audiovisual,[],,None,,,None,,,121,A,2026-04-05_16h16.17.595,exp_sofc_final,,2026.1.2,60.017777303184225,2026-04-05 16h16.19.092893 +0200,
,41,0,41,,,,None,,,None,,,,,,,,,,,41,0,41,0,735.5090065998957,,,,,,,,,,,,,,,,clips/clip_herz_10_nosub_0.mp4,audios/silence.mp3,visual,[],,None,,,None,,,121,A,2026-04-05_16h16.17.595,exp_sofc_final,,2026.1.2,60.017777303184225,2026-04-05 16h16.19.092893 +0200,
,42,0,42,,,,None,,,None,,,,,,,,,,,42,0,42,0,746.357193400152,,,,,,,,,,,,,,,,clips/clip_claude_26_sub_0.mp4,audios/silence.mp3,visual,[4.572435200214386],,None,,,None,,,121,A,2026-04-05_16h16.17.595,exp_sofc_final,,2026.1.2,60.017777303184225,2026-04-05 16h16.19.092893 +0200,
,43,0,43,,,,None,,,None,,,,,,,,,,,43,0,43,0,758.1561133000068,,,,,,,,,,,,,,,,clips/clip_lied_06_nosub_1.mp4,audios/clip_lied_06_nosub_1.mp3,audiovisual,[],,None,,,None,,,121,A,2026-04-05_16h16.17.595,exp_sofc_final,,2026.1.2,60.017777303184225,2026-04-05 16h16.19.092893 +0200,
,44,0,44,,,,None,,,None,,,,,,,,,,,44,0,44,0,771.6247992999852,,,,,,,,,,,,,,,,clips/clip_hund_04_nosub_0.mp4,audios/clip_hund_04_nosub_0.mp3,audiovisual,[],,None,,,None,,,121,A,2026-04-05_16h16.17.595,exp_sofc_final,,2026.1.2,60.017777303184225,2026-04-05 16h16.19.092893 +0200,
,45,0,45,,,,3,6.573287999723107,None,None,,,,,,,,,,,45,0,45,0,781.9627704001032,,,,,,,,,,,,,,,,clips/clip_holo_24_sub_2.mp4,audios/clip_holo_24_sub_2.mp3,audiovisual,[7.034823500085622],4,3,6.573287999723107,None,None,,,121,A,2026-04-05_16h16.17.595,exp_sofc_final,,2026.1.2,60.017777303184225,2026-04-05 16h16.19.092893 +0200,
,46,0,46,,,,None,,,None,,,,,,,,,,,46,0,46,0,799.2393399998546,,,,,,,,,,,,,,,,clips/clip_weißt_17_sub_0.mp4,audios/silence.mp3,visual,[],,None,,,None,,,121,A,2026-04-05_16h16.17.595,exp_sofc_final,,2026.1.2,60.017777303184225,2026-04-05 16h16.19.092893 +0200,
,47,0,47,,,,None,,,None,,,,,,,,,,,47,0,47,0,811.6184247997589,,,,,,,,,,,,,,,,clips/clip_dampf_05_nosub_2.mp4,audios/clip_dampf_05_nosub_2.mp3,audiovisual,"[3.534625899977982, 8.41766869975254]",,None,,,None,,,121,A,2026-04-05_16h16.17.595,exp_sofc_final,,2026.1.2,60.017777303184225,2026-04-05 16h16.19.092893 +0200,
,48,0,48,,,,None,,,None,,,,,,,,,,,48,0,48,0,821.1482388000004,,,,,,,,,,,,,,,,clips/clip_dampf_04_nosub_1.mp4,audios/silence.mp3,visual,[5.150089500006288],,None,,,None,,,121,A,2026-04-05_16h16.17.595,exp_sofc_final,,2026.1.2,60.017777303184225,2026-04-05 16h16.19.092893 +0200,
,49,0,49,,,,None,,,None,,,,,,,,,,,49,0,49,0,831.6126033999026,,,,,,,,,,,,,,,,clips/clip_weißt_11_nosub_0.mp4,audios/silence.mp3,visual,[],,None,,,None,,,121,A,2026-04-05_16h16.17.595,exp_sofc_final,,2026.1.2,60.017777303184225,2026-04-05 16h16.19.092893 +0200,
,50,0,50,,,,2,4.1877820999361575,None,None,,,,,,,,,,,50,0,50,0,842.4335174998268,,,,,,,,,,,,,,,,clips/clip_herz_12_sub_0.mp4,audios/silence.mp3,visual,[5.921831599902362],2,2,4.1877820999361575,None,None,,,121,A,2026-04-05_16h16.17.595,exp_sofc_final,,2026.1.2,60.017777303184225,2026-04-05 16h16.19.092893 +0200,
,51,0,51,,,,None,,,None,,,,,,,,,,,51,0,51,0,856.690642000176,,,,,,,,,,,,,,,,clips/clip_lied_21_sub_2.mp4,audios/clip_lied_21_sub_2.mp3,audiovisual,"[5.156539699994028, 10.604082299862057]",,None,,,None,,,121,A,2026-04-05_16h16.17.595,exp_sofc_final,,2026.1.2,60.017777303184225,2026-04-05 16h16.19.092893 +0200,
,52,0,52,,,,None,,,None,,,,,,,,,,,52,0,52,0,869.0129160997458,,,,,,,,,,,,,,,,clips/clip_hund_23_sub_1.mp4,audios/clip_hund_23_sub_1.mp3,audiovisual,[],,None,,,None,,,121,A,2026-04-05_16h16.17.595,exp_sofc_final,,2026.1.2,60.017777303184225,2026-04-05 16h16.19.092893 +0200,
,53,0,53,,,,None,,,None,,,,,,,,,,,53,0,53,0,880.7145771998912,,,,,,,,,,,,,,,,clips/clip_claude_14_sub_0.mp4,audios/silence.mp3,visual,"[3.1744583998806775, 10.376220499631017]",,None,,,None,,,121,A,2026-04-05_16h16.17.595,exp_sofc_final,,2026.1.2,60.017777303184225,2026-04-05 16h16.19.092893 +0200,
,54,0,54,,,,None,,,None,,,,,,,,,,,54,0,54,0,892.6550837000832,,,,,,,,,,,,,,,,clips/clip_hund_24_nosub_1.mp4,audios/silence.mp3,visual,[7.9367655999958515],,None,,,None,,,121,A,2026-04-05_16h16.17.595,exp_sofc_final,,2026.1.2,60.017777303184225,2026-04-05 16h16.19.092893 +0200,
,55,0,55,,,,None,,,None,,,,,,,,,,,55,0,55,0,905.7141229999252,,,,,,,,,,,,,,,,clips/clip_holo_02_nosub_2.mp4,audios/clip_holo_02_nosub_2.mp3,audiovisual,"[4.059066600166261, 7.9214038997888565]",,None,,,None,,,121,A,2026-04-05_16h16.17.595,exp_sofc_final,,2026.1.2,60.017777303184225,2026-04-05 16h16.19.092893 +0200,
,56,0,56,,,,3,4.0524936998263,None,None,,,,,,,,,,,56,0,56,0,917.6862540999427,,,,,,,,,,,,,,,,clips/clip_holo_28_sub_0.mp4,audios/silence.mp3,visual,[],3,3,4.0524936998263,None,None,,,121,A,2026-04-05_16h16.17.595,exp_sofc_final,,2026.1.2,60.017777303184225,2026-04-05 16h16.19.092893 +0200,
,57,0,57,,,,None,,,None,,,,,,,,,,,57,0,57,0,931.1139361998066,,,,,,,,,,,,,,,,clips/clip_wurst_16_sub_0.mp4,audios/silence.mp3,visual,[],,None,,,None,,,121,A,2026-04-05_16h16.17.595,exp_sofc_final,,2026.1.2,60.017777303184225,2026-04-05 16h16.19.092893 +0200,
,58,0,58,,,,None,,,None,,,,,,,,,,,58,0,58,0,941.9700294001959,,,,,,,,,,,,,,,,clips/clip_claude_05_nosub_2.mp4,audios/clip_claude_05_nosub_2.mp3,audiovisual,[4.757961799856275],,None,,,None,,,121,A,2026-04-05_16h16.17.595,exp_sofc_final,,2026.1.2,60.017777303184225,2026-04-05 16h16.19.092893 +0200,
,59,0,59,,,,4,3.1914679002948105,None,space,10.471869399771094,None,,,,,,,,,59,0,59,0,954.1183369001374,,,,,,,,,,,,,,,,clips/clip_weißt_08_sub_0.mp4,audios/clip_weißt_08_sub_0.mp3,audiovisual,[7.715190300252289],4,4,3.1914679002948105,None,space,10.471869399771094,None,121,A,2026-04-05_16h16.17.595,exp_sofc_final,,2026.1.2,60.017777303184225,2026-04-05 16h16.19.092893 +0200,
,60,0,60,,,,2,3.54323669988662,None,None,,,,,,,,,,,60,0,60,0,978.8724678000435,,,,,,,,,,,,,,,,clips/clip_wurst_34_nosub_2.mp4,audios/silence.mp3,visual,"[4.516675499733537, 6.183809099718928]",2,2,3.54323669988662,None,None,,,121,A,2026-04-05_16h16.17.595,exp_sofc_final,,2026.1.2,60.017777303184225,2026-04-05 16h16.19.092893 +0200,
,61,0,61,,,,None,,,None,,,,,,,,,,,61,0,61,0,991.833536399994,,,,,,,,,,,,,,,,clips/clip_weißt_06_nosub_0.mp4,audios/clip_weißt_06_nosub_0.mp3,audiovisual,[5.62506250012666],,None,,,None,,,121,A,2026-04-05_16h16.17.595,exp_sofc_final,,2026.1.2,60.017777303184225,2026-04-05 16h16.19.092893 +0200,
,62,0,62,,,,None,,,None,,,,,,,,,,,62,0,62,0,1002.9443280999549,,,,,,,,,,,,,,,,clips/clip_weißt_02_sub_0.mp4,audios/silence.mp3,visual,[],,None,,,None,,,121,A,2026-04-05_16h16.17.595,exp_sofc_final,,2026.1.2,60.017777303184225,2026-04-05 16h16.19.092893 +0200,
,63,0,63,,,,None,,,None,,,,,,,,,,,63,0,63,0,1013.8379180999473,,,,,,,,,,,,,,,,clips/clip_hund_17_nosub_1.mp4,audios/clip_hund_17_nosub_1.mp3,audiovisual,[10.193340899888426],,None,,,None,,,121,A,2026-04-05_16h16.17.595,exp_sofc_final,,2026.1.2,60.017777303184225,2026-04-05 16h16.19.092893 +0200,
,64,0,64,,,,3,5.274051399901509,None,None,,,,,,,,,,,64,0,64,0,1026.929264999926,,,,,,,,,,,,,,,,clips/clip_herz_06_nosub_2.mp4,audios/silence.mp3,visual,"[4.632932799868286, 8.128833499737084]",3,3,5.274051399901509,None,None,,,121,A,2026-04-05_16h16.17.595,exp_sofc_final,,2026.1.2,60.017777303184225,2026-04-05 16h16.19.092893 +0200,
,65,0,65,,,,3,3.76219329982996,None,None,,,,,,,,,,,65,0,65,0,1043.6362932999618,,,,,,,,,,,,,,,,clips/clip_claude_16_nosub_1.mp4,audios/silence.mp3,visual,[9.240036900155246],3,3,3.76219329982996,None,None,,,121,A,2026-04-05_16h16.17.595,exp_sofc_final,,2026.1.2,60.017777303184225,2026-04-05 16h16.19.092893 +0200,
,66,0,66,,,,None,,,None,,,,,,,,,,,66,0,66,0,1059.4951428999193,,,,,,,,,,,,,,,,clips/clip_weißt_20_nosub_1.mp4,audios/silence.mp3,visual,[7.864559999667108],,None,,,None,,,121,A,2026-04-05_16h16.17.595,exp_sofc_final,,2026.1.2,60.017777303184225,2026-04-05 16h16.19.092893 +0200,
,67,0,67,,,,None,,,None,,,,,,,,,,,67,0,67,0,1070.0929085998796,,,,,,,,,,,,,,,,clips/clip_weißt_13_sub_0.mp4,audios/silence.mp3,visual,[],,None,,,None,,,121,A,2026-04-05_16h16.17.595,exp_sofc_final,,2026.1.2,60.017777303184225,2026-04-05 16h16.19.092893 +0200,
,68,0,68,,,,None,,,None,,,,,,,,,,,68,0,68,0,1081.8169283000752,,,,,,,,,,,,,,,,clips/clip_weißt_27_nosub_1.mp4,audios/clip_weißt_27_nosub_1.mp3,audiovisual,"[0.041133500169962645, 8.025964700151235]",,None,,,None,,,121,A,2026-04-05_16h16.17.595,exp_sofc_final,,2026.1.2,60.017777303184225,2026-04-05 16h16.19.092893 +0200,
,69,0,69,,,,None,,,None,,,,,,,,,,,69,0,69,0,1092.7178747002035,,,,,,,,,,,,,,,,clips/clip_claude_06_sub_1.mp4,audios/silence.mp3,visual,[4.092802499886602],,None,,,None,,,121,A,2026-04-05_16h16.17.595,exp_sofc_final,,2026.1.2,60.017777303184225,2026-04-05 16h16.19.092893 +0200,
,70,0,70,,,,None,,,None,,,,,,,,,,,70,0,70,0,1106.1106267999858,,,,,,,,,,,,,,,,clips/clip_hund_22_sub_1.mp4,audios/silence.mp3,visual,[8.509133799932897],,None,,,None,,,121,A,2026-04-05_16h16.17.595,exp_sofc_final,,2026.1.2,60.017777303184225,2026-04-05 16h16.19.092893 +0200,
,71,0,71,,,,None,,,None,,,,,,,,,,,71,0,71,0,1117.0956200999208,,,,,,,,,,,,,,,,clips/clip_claude_15_sub_0.mp4,audios/clip_claude_15_sub_0.mp3,audiovisual,[],,None,,,None,,,121,A,2026-04-05_16h16.17.595,exp_sofc_final,,2026.1.2,60.017777303184225,2026-04-05 16h16.19.092893 +0200,
,72,0,72,,,,None,,,None,,,,,,,,,,,72,0,72,0,1129.8612027000636,,,,,,,,,,,,,,,,clips/clip_lied_04_sub_0.mp4,audios/clip_lied_04_sub_0.mp3,audiovisual,[],,None,,,None,,,121,A,2026-04-05_16h16.17.595,exp_sofc_final,,2026.1.2,60.017777303184225,2026-04-05 16h16.19.092893 +0200,
,73,0,73,,,,2,2.222264800220728,None,None,,,,,,,,,,,73,0,73,0,1141.711219099816,,,,,,,,,,,,,,,,clips/clip_holo_08_sub_2.mp4,audios/clip_holo_08_sub_2.mp3,audiovisual,"[4.463384099770337, 9.236905599944293]",2,2,2.222264800220728,None,None,,,121,A,2026-04-05_16h16.17.595,exp_sofc_final,,2026.1.2,60.017777303184225,2026-04-05 16h16.19.092893 +0200,
,74,0,74,,,,2,3.3467915998771787,None,None,,,,,,,,,,,74,0,74,0,1155.5205430001952,,,,,,,,,,,,,,,,clips/clip_claude_22_sub_2.mp4,audios/silence.mp3,visual,[8.093247400131077],2,2,3.3467915998771787,None,None,,,121,A,2026-04-05_16h16.17.595,exp_sofc_final,,2026.1.2,60.017777303184225,2026-04-05 16h16.19.092893 +0200,
,75,0,75,,,,None,,,None,,,,,,,,,,,75,0,75,0,1170.7584041999653,,,,,,,,,,,,,,,,clips/clip_hund_09_nosub_2.mp4,audios/clip_hund_09_nosub_2.mp3,audiovisual,"[5.488399699795991, 10.54850250016898]",,None,,,None,,,121,A,2026-04-05_16h16.17.595,exp_sofc_final,,2026.1.2,60.017777303184225,2026-04-05 16h16.19.092893 +0200,
,76,0,76,,,,None,,,None,,,,,,,,,,,76,0,76,0,1182.9341406999156,,,,,,,,,,,,,,,,clips/clip_holo_26_nosub_2.mp4,audios/silence.mp3,visual,"[6.03179239993915, 9.127856499981135]",,None,,,None,,,121,A,2026-04-05_16h16.17.595,exp_sofc_final,,2026.1.2,60.017777303184225,2026-04-05 16h16.19.092893 +0200,
,77,0,77,,,,None,,,None,,,,,,,,,,,77,0,77,0,1193.0266646998934,,,,,,,,,,,,,,,,clips/clip_wurst_21_sub_0.mp4,audios/clip_wurst_21_sub_0.mp3,audiovisual,[5.776698099914938],,None,,,None,,,121,A,2026-04-05_16h16.17.595,exp_sofc_final,,2026.1.2,60.017777303184225,2026-04-05 16h16.19.092893 +0200,
,78,0,78,,,,None,,,None,,,,,,,,,,,78,0,78,0,1204.8883605999872,,,,,,,,,,,,,,,,clips/clip_claude_29_nosub_0.mp4,audios/silence.mp3,visual,[],,None,,,None,,,121,A,2026-04-05_16h16.17.595,exp_sofc_final,,2026.1.2,60.017777303184225,2026-04-05 16h16.19.092893 +0200,
,79,0,79,,,,None,,,None,,,,,,,,,,,79,0,79,0,1215.6050923001021,,,,,,,,,,,,,,,,clips/clip_lied_16_sub_2.mp4,audios/silence.mp3,visual,"[4.174032699782401, 6.597683500032872]",,None,,,None,,,121,A,2026-04-05_16h16.17.595,exp_sofc_final,,2026.1.2,60.017777303184225,2026-04-05 16h16.19.092893 +0200,
,80,0,80,,,,None,,,None,,,,,,,,,,,80,0,80,0,1227.0244113998488,,,,,,,,,,,,,,,,clips/clip_hund_10_sub_0.mp4,audios/silence.mp3,visual,"[1.3424022998660803, 8.408762000035495]",,None,,,None,,,121,A,2026-04-05_16h16.17.595,exp_sofc_final,,2026.1.2,60.017777303184225,2026-04-05 16h16.19.092893 +0200,
,81,0,81,,,,None,,,None,,,,,,,,,,,81,0,81,0,1237.4029902000912,,,,,,,,,,,,,,,,clips/clip_wurst_30_nosub_1.mp4,audios/silence.mp3,visual,[],,None,,,None,,,121,A,2026-04-05_16h16.17.595,exp_sofc_final,,2026.1.2,60.017777303184225,2026-04-05 16h16.19.092893 +0200,
,82,0,82,,,,2,2.325818100012839,None,None,,,,,,,,,,,82,0,82,0,1248.261992199812,,,,,,,,,,,,,,,,clips/clip_wurst_14_nosub_1.mp4,audios/silence.mp3,visual,[7.809496600180864],2,2,2.325818100012839,None,None,,,121,A,2026-04-05_16h16.17.595,exp_sofc_final,,2026.1.2,60.017777303184225,2026-04-05 16h16.19.092893 +0200,
,83,0,83,,,,None,,,None,,,,,,,,,,,83,0,83,0,1261.4839400001802,,,,,,,,,,,,,,,,clips/clip_hund_19_sub_0.mp4,audios/clip_hund_19_sub_0.mp3,audiovisual,[],,None,,,None,,,121,A,2026-04-05_16h16.17.595,exp_sofc_final,,2026.1.2,60.017777303184225,2026-04-05 16h16.19.092893 +0200,
,84,0,84,,,,4,4.948041999712586,None,None,,,,,,,,,,,84,0,84,0,1273.6496468000114,,,,,,,,,,,,,,,,clips/clip_hund_12_nosub_1.mp4,audios/silence.mp3,visual,[9.969497899990529],4,4,4.948041999712586,None,None,,,121,A,2026-04-05_16h16.17.595,exp_sofc_final,,2026.1.2,60.017777303184225,2026-04-05 16h16.19.092893 +0200,
,85,0,85,,,,None,,,None,,,,,,,,,,,85,0,85,0,1290.7288830000907,,,,,,,,,,,,,,,,clips/clip_claude_24_nosub_1.mp4,audios/silence.mp3,visual,[6.359756899997592],,None,,,None,,,121,A,2026-04-05_16h16.17.595,exp_sofc_final,,2026.1.2,60.017777303184225,2026-04-05 16h16.19.092893 +0200,
,86,0,86,,,,None,,,None,,,,,,,,,,,86,0,86,0,1297.7951217000373,,,,,,,,,,,,,,,,clips/clip_holo_13_nosub_1.mp4,audios/silence.mp3,visual,[4.133216100279242],,None,,,None,,,121,A,2026-04-05_16h16.17.595,exp_sofc_final,,2026.1.2,60.017777303184225,2026-04-05 16h16.19.092893 +0200,
,87,0,87,,,,None,,,None,,,,,,,,,,,87,0,87,0,1310.9293275000528,,,,,,,,,,,,,,,,clips/clip_weißt_16_nosub_0.mp4,audios/clip_weißt_16_nosub_0.mp3,audiovisual,[],,None,,,None,,,121,A,2026-04-05_16h16.17.595,exp_sofc_final,,2026.1.2,60.017777303184225,2026-04-05 16h16.19.092893 +0200,
,88,0,88,,,,None,,,None,,,,,,,,,,,88,0,88,0,1322.1055684001185,,,,,,,,,,,,,,,,clips/clip_claude_02_sub_1.mp4,audios/silence.mp3,visual,[5.808388599660248],,None,,,None,,,121,A,2026-04-05_16h16.17.595,exp_sofc_final,,2026.1.2,60.017777303184225,2026-04-05 16h16.19.092893 +0200,
,89,0,89,,,,None,,,None,,,,,,,,,,,89,0,89,0,1332.7531909001991,,,,,,,,,,,,,,,,clips/clip_wurst_20_sub_0.mp4,audios/silence.mp3,visual,[],,None,,,None,,,121,A,2026-04-05_16h16.17.595,exp_sofc_final,,2026.1.2,60.017777303184225,2026-04-05 16h16.19.092893 +0200,
,90,0,90,,,,None,,,None,,,,,,,,,,,90,0,90,0,1343.6117210001685,,,,,,,,,,,,,,,,clips/clip_claude_09_nosub_2.mp4,audios/clip_claude_09_nosub_2.mp3,audiovisual,"[3.9413711996749043, 8.878344999626279]",,None,,,None,,,121,A,2026-04-05_16h16.17.595,exp_sofc_final,,2026.1.2,60.017777303184225,2026-04-05 16h16.19.092893 +0200,
,91,0,91,,,,None,,,None,,,,,,,,,,,91,0,91,0,1354.6431749002077,,,,,,,,,,,,,,,,clips/clip_lied_10_nosub_1.mp4,audios/clip_lied_10_nosub_1.mp3,audiovisual,[4.489306299947202],,None,,,None,,,121,A,2026-04-05_16h16.17.595,exp_sofc_final,,2026.1.2,60.017777303184225,2026-04-05 16h16.19.092893 +0200,
,92,0,92,,,,None,,,None,,,,,,,,,,,92,0,92,0,1366.9914609999396,,,,,,,,,,,,,,,,clips/clip_herz_01_sub_1.mp4,audios/clip_herz_01_sub_1.mp3,audiovisual,[6.458624499849975],,None,,,None,,,121,A,2026-04-05_16h16.17.595,exp_sofc_final,,2026.1.2,60.017777303184225,2026-04-05 16h16.19.092893 +0200,
,93,0,93,,,,None,,,None,,,,,,,,,,,93,0,93,0,1378.3913067998365,,,,,,,,,,,,,,,,clips/clip_dampf_01_nosub_0.mp4,audios/clip_dampf_01_nosub_0.mp3,audiovisual,[],,None,,,None,,,121,A,2026-04-05_16h16.17.595,exp_sofc_final,,2026.1.2,60.017777303184225,2026-04-05 16h16.19.092893 +0200,
,94,0,94,,,,None,,,None,,,,,,,,,,,94,0,94,0,1388.6473423000425,,,,,,,,,,,,,,,,clips/clip_holo_16_sub_1.mp4,audios/clip_holo_16_sub_1.mp3,audiovisual,[10.301182399969548],,None,,,None,,,121,A,2026-04-05_16h16.17.595,exp_sofc_final,,2026.1.2,60.017777303184225,2026-04-05 16h16.19.092893 +0200,
,95,0,95,,,,None,,,None,,,,,,,,,,,95,0,95,0,1401.4124480998144,,,,,,,,,,,,,,,,clips/clip_lied_22_nosub_1.mp4,audios/silence.mp3,visual,[6.054546700324863],,None,,,None,,,121,A,2026-04-05_16h16.17.595,exp_sofc_final,,2026.1.2,60.017777303184225,2026-04-05 16h16.19.092893 +0200,
,96,0,96,,,,4,3.345940699800849,None,None,,,,,,,,,,,96,0,96,0,1412.7904472001828,,,,,,,,,,,,,,,,clips/clip_wurst_31_nosub_1.mp4,audios/clip_wurst_31_nosub_1.mp3,audiovisual,[],4,4,3.345940699800849,None,None,,,121,A,2026-04-05_16h16.17.595,exp_sofc_final,,2026.1.2,60.017777303184225,2026-04-05 16h16.19.092893 +0200,
,97,0,97,,,,None,,,None,,,,,,,,,,,97,0,97,0,1428.0423368997872,,,,,,,,,,,,,,,,clips/clip_claude_19_sub_0.mp4,audios/clip_claude_19_sub_0.mp3,audiovisual,[],,None,,,None,,,121,A,2026-04-05_16h16.17.595,exp_sofc_final,,2026.1.2,60.017777303184225,2026-04-05 16h16.19.092893 +0200,
,98,0,98,,,,3,5.898403799626976,None,None,,,,,,,,,,,98,0,98,0,1439.2305250000209,,,,,,,,,,,,,,,,clips/clip_holo_17_nosub_0.mp4,audios/silence.mp3,visual,[],4,3,5.898403799626976,None,None,,,121,A,2026-04-05_16h16.17.595,exp_sofc_final,,2026.1.2,60.017777303184225,2026-04-05 16h16.19.092893 +0200,
,99,0,99,,,,None,,,None,,,,,,,,,,,99,0,99,0,1455.7617407999933,,,,,,,,,,,,,,,,clips/clip_lied_07_sub_1.mp4,audios/silence.mp3,visual,[4.6268639001064],,None,,,None,,,121,A,2026-04-05_16h16.17.595,exp_sofc_final,,2026.1.2,60.017777303184225,2026-04-05 16h16.19.092893 +0200,
,100,0,100,,,,None,,,None,,,,,,,,,,,100,0,100,0,1465.5905153001659,,,,,,,,,,,,,,,,clips/clip_hund_32_nosub_1.mp4,audios/silence.mp3,visual,"[4.7588694002479315, 6.71559950010851]",,None,,,None,,,121,A,2026-04-05_16h16.17.595,exp_sofc_final,,2026.1.2,60.017777303184225,2026-04-05 16h16.19.092893 +0200,
,101,0,101,,,,None,,,None,,,,,,,,,,,101,0,101,0,1476.572399099823,,,,,,,,,,,,,,,,clips/clip_claude_13_nosub_0.mp4,audios/clip_claude_13_nosub_0.mp3,audiovisual,[],,None,,,None,,,121,A,2026-04-05_16h16.17.595,exp_sofc_final,,2026.1.2,60.017777303184225,2026-04-05 16h16.19.092893 +0200,
,102,0,102,,,,None,,,None,,,,,,,,,,,102,0,102,0,1486.5122231999412,,,,,,,,,,,,,,,,clips/clip_holo_19_sub_1.mp4,audios/silence.mp3,visual,[6.57997029973194],,None,,,None,,,121,A,2026-04-05_16h16.17.595,exp_sofc_final,,2026.1.2,60.017777303184225,2026-04-05 16h16.19.092893 +0200,
,103,0,103,,,,None,,,None,,,,,,,,,,,103,0,103,0,1497.354667100124,,,,,,,,,,,,,,,,clips/clip_wurst_03_sub_1.mp4,audios/silence.mp3,visual,[4.255550900008529],,None,,,None,,,121,A,2026-04-05_16h16.17.595,exp_sofc_final,,2026.1.2,60.017777303184225,2026-04-05 16h16.19.092893 +0200,
,104,0,104,,,,None,,,None,,,,,,,,,,,104,0,104,0,1510.129436600022,,,,,,,,,,,,,,,,clips/clip_lied_14_nosub_0.mp4,audios/silence.mp3,visual,[],,None,,,None,,,121,A,2026-04-05_16h16.17.595,exp_sofc_final,,2026.1.2,60.017777303184225,2026-04-05 16h16.19.092893 +0200,
,105,0,105,,,,None,,,None,,,,,,,,,,,105,0,105,0,1520.6058979998343,,,,,,,,,,,,,,,,clips/clip_hund_08_nosub_1.mp4,audios/silence.mp3,visual,[],,None,,,None,,,121,A,2026-04-05_16h16.17.595,exp_sofc_final,,2026.1.2,60.017777303184225,2026-04-05 16h16.19.092893 +0200,
,106,0,106,,,,None,,,None,,,,,,,,,,,106,0,106,0,1531.4418164999224,,,,,,,,,,,,,,,,clips/clip_holo_09_nosub_2.mp4,audios/silence.mp3,visual,[],,None,,,None,,,121,A,2026-04-05_16h16.17.595,exp_sofc_final,,2026.1.2,60.017777303184225,2026-04-05 16h16.19.092893 +0200,
,107,0,107,,,,4,3.6133133000694215,None,None,,,,,,,,,,,107,0,107,0,1543.704117699992,,,,,,,,,,,,,,,,clips/clip_wurst_05_nosub_0.mp4,audios/silence.mp3,visual,[],4,4,3.6133133000694215,None,None,,,121,A,2026-04-05_16h16.17.595,exp_sofc_final,,2026.1.2,60.017777303184225,2026-04-05 16h16.19.092893 +0200,
,108,0,108,,,,None,,,None,,,,,,,,,,,108,0,108,0,1556.8757572998293,,,,,,,,,,,,,,,,clips/clip_weißt_28_sub_1.mp4,audios/silence.mp3,visual,"[2.7723292000591755, 6.780187500175089]",,None,,,None,,,121,A,2026-04-05_16h16.17.595,exp_sofc_final,,2026.1.2,60.017777303184225,2026-04-05 16h16.19.092893 +0200,
,109,0,109,,,,None,,,None,,,,,,,,,,,109,0,109,0,1567.8109225998633,,,,,,,,,,,,,,,,clips/clip_lied_12_sub_0.mp4,audios/clip_lied_12_sub_0.mp3,audiovisual,[],,None,,,None,,,121,A,2026-04-05_16h16.17.595,exp_sofc_final,,2026.1.2,60.017777303184225,2026-04-05 16h16.19.092893 +0200,
,110,0,110,,,,None,,,None,,,,,,,,,,,110,0,110,0,1577.6247625001706,,,,,,,,,,,,,,,,clips/clip_wurst_36_sub_0.mp4,audios/silence.mp3,visual,[],,None,,,None,,,121,A,2026-04-05_16h16.17.595,exp_sofc_final,,2026.1.2,60.017777303184225,2026-04-05 16h16.19.092893 +0200,
,111,0,111,,,,None,,,None,,,,,,,,,,,111,0,111,0,1588.339528199751,,,,,,,,,,,,,,,,clips/clip_holo_27_nosub_1.mp4,audios/clip_holo_27_nosub_1.mp3,audiovisual,[5.505860300268978],,None,,,None,,,121,A,2026-04-05_16h16.17.595,exp_sofc_final,,2026.1.2,60.017777303184225,2026-04-05 16h16.19.092893 +0200,
,112,0,112,,,,None,,,None,,,,,,,,,,,112,0,112,0,1599.1665031998418,,,,,,,,,,,,,,,,clips/clip_claude_04_nosub_2.mp4,audios/silence.mp3,visual,[8.435098399873823],,None,,,None,,,121,A,2026-04-05_16h16.17.595,exp_sofc_final,,2026.1.2,60.017777303184225,2026-04-05 16h16.19.092893 +0200,
,113,0,113,,,,None,,,None,,,,,,,,,,,113,0,113,0,1609.0372486999258,,,,,,,,,,,,,,,,clips/clip_wurst_25_sub_1.mp4,audios/clip_wurst_25_sub_1.mp3,audiovisual,[],,None,,,None,,,121,A,2026-04-05_16h16.17.595,exp_sofc_final,,2026.1.2,60.017777303184225,2026-04-05 16h16.19.092893 +0200,
,114,0,114,,,,None,,,None,,,,,,,,,,,114,0,114,0,1621.059354300145,,,,,,,,,,,,,,,,clips/clip_herz_15_nosub_0.mp4,audios/clip_herz_15_nosub_0.mp3,audiovisual,"[6.088160200044513, 8.520688800141215]",,None,,,None,,,121,A,2026-04-05_16h16.17.595,exp_sofc_final,,2026.1.2,60.017777303184225,2026-04-05 16h16.19.092893 +0200,
,115,0,115,,,,None,,,None,,,,,,,,,,,115,0,115,0,1633.882081199903,,,,,,,,,,,,,,,,clips/clip_hund_05_sub_0.mp4,audios/silence.mp3,visual,[4.195880100131035],,None,,,None,,,121,A,2026-04-05_16h16.17.595,exp_sofc_final,,2026.1.2,60.017777303184225,2026-04-05 16h16.19.092893 +0200,
,116,0,116,,,,None,,,None,,,,,,,,,,,116,0,116,0,1645.730168600101,,,,,,,,,,,,,,,,clips/clip_wurst_08_sub_1.mp4,audios/clip_wurst_08_sub_1.mp3,audiovisual,[5.369575999677181],,None,,,None,,,121,A,2026-04-05_16h16.17.595,exp_sofc_final,,2026.1.2,60.017777303184225,2026-04-05 16h16.19.092893 +0200,
,117,0,117,,,,None,,,None,,,,,,,,,,,117,0,117,0,1655.0198184000328,,,,,,,,,,,,,,,,clips/clip_claude_08_nosub_0.mp4,audios/silence.mp3,visual,[],,None,,,None,,,121,A,2026-04-05_16h16.17.595,exp_sofc_final,,2026.1.2,60.017777303184225,2026-04-05 16h16.19.092893 +0200,
,118,0,118,,,,None,,,None,,,,,,,,,,,118,0,118,0,1665.5034878998995,,,,,,,,,,,,,,,,clips/clip_holo_04_sub_2.mp4,audios/clip_holo_04_sub_2.mp3,audiovisual,"[3.206171900033951, 7.156971400137991]",,None,,,None,,,121,A,2026-04-05_16h16.17.595,exp_sofc_final,,2026.1.2,60.017777303184225,2026-04-05 16h16.19.092893 +0200,
,119,0,119,,,,None,,,space,0.33870629966259,None,,,,,,,,,119,0,119,0,1678.305872200057,,,,,,,,,,,,,,,,clips/clip_hund_03_nosub_1.mp4,audios/silence.mp3,visual,[6.66961449990049],,None,,,space,0.33870629966259,None,121,A,2026-04-05_16h16.17.595,exp_sofc_final,,2026.1.2,60.017777303184225,2026-04-05 16h16.19.092893 +0200,
,120,0,120,,,,None,,,None,,,,,,,,,,,120,0,120,0,1691.418315200135,,,,,,,,,,,,,,,,clips/clip_hund_11_sub_1.mp4,audios/clip_hund_11_sub_1.mp3,audiovisual,[6.339638599660248],,None,,,None,,,121,A,2026-04-05_16h16.17.595,exp_sofc_final,,2026.1.2,60.017777303184225,2026-04-05 16h16.19.092893 +0200,
,121,0,121,,,,3,3.4390229997225106,None,None,,,,,,,,,,,121,0,121,0,1702.0002509001642,,,,,,,,,,,,,,,,clips/clip_hund_20_nosub_0.mp4,audios/silence.mp3,visual,[],3,3,3.4390229997225106,None,None,,,121,A,2026-04-05_16h16.17.595,exp_sofc_final,,2026.1.2,60.017777303184225,2026-04-05 16h16.19.092893 +0200,
,122,0,122,,,,4,6.004616199992597,None,None,,,,,,,,,,,122,0,122,0,1717.814758699853,,,,,,,,,,,,,,,,clips/clip_claude_20_nosub_1.mp4,audios/silence.mp3,visual,[6.634650100022554],2,4,6.004616199992597,None,None,,,121,A,2026-04-05_16h16.17.595,exp_sofc_final,,2026.1.2,60.017777303184225,2026-04-05 16h16.19.092893 +0200,
,123,0,123,,,,None,,,None,,,,,,,,,,,123,0,123,0,1736.7332330998033,,,,,,,,,,,,,,,,clips/clip_lied_11_sub_1.mp4,audios/silence.mp3,visual,[8.0924761001952],,None,,,None,,,121,A,2026-04-05_16h16.17.595,exp_sofc_final,,2026.1.2,60.017777303184225,2026-04-05 16h16.19.092893 +0200,
,124,0,124,,,,None,,,None,,,,,,,,,,,124,0,124,0,1748.6136122001335,,,,,,,,,,,,,,,,clips/clip_dampf_06_sub_2.mp4,audios/silence.mp3,visual,[],,None,,,None,,,121,A,2026-04-05_16h16.17.595,exp_sofc_final,,2026.1.2,60.017777303184225,2026-04-05 16h16.19.092893 +0200,
,125,0,125,,,,None,,,None,,,,,,,,,,,125,0,125,0,1758.5021810000762,,,,,,,,,,,,,,,,clips/clip_hund_21_nosub_1.mp4,audios/clip_hund_21_nosub_1.mp3,audiovisual,[6.452776900026947],,None,,,None,,,121,A,2026-04-05_16h16.17.595,exp_sofc_final,,2026.1.2,60.017777303184225,2026-04-05 16h16.19.092893 +0200,
,126,0,126,,,,None,,,None,,,,,,,,,,,126,0,126,0,1769.3819817001931,,,,,,,,,,,,,,,,clips/clip_weißt_07_sub_1.mp4,audios/silence.mp3,visual,[3.9377704998478293],,None,,,None,,,121,A,2026-04-05_16h16.17.595,exp_sofc_final,,2026.1.2,60.017777303184225,2026-04-05 16h16.19.092893 +0200,
,127,0,127,,,,None,,,None,,,,,,,,,,,127,0,127,0,1779.912787700072,,,,,,,,,,,,,,,,clips/clip_claude_12_nosub_0.mp4,audios/silence.mp3,visual,[0.9141758996993303],,None,,,None,,,121,A,2026-04-05_16h16.17.595,exp_sofc_final,,2026.1.2,60.017777303184225,2026-04-05 16h16.19.092893 +0200,
,128,0,128,,,,None,,,None,,,,,,,,,,,128,0,128,0,1790.0114866998047,,,,,,,,,,,,,,,,clips/clip_holo_18_nosub_0.mp4,audios/clip_holo_18_nosub_0.mp3,audiovisual,"[6.360556100029498, 8.797103499993682]",,None,,,None,,,121,A,2026-04-05_16h16.17.595,exp_sofc_final,,2026.1.2,60.017777303184225,2026-04-05 16h16.19.092893 +0200,
,129,0,129,,,,None,,,None,,,,,,,,,,,129,0,129,0,1802.6991095999256,,,,,,,,,,,,,,,,clips/clip_claude_25_nosub_0.mp4,audios/clip_claude_25_nosub_0.mp3,audiovisual,[],,None,,,None,,,121,A,2026-04-05_16h16.17.595,exp_sofc_final,,2026.1.2,60.017777303184225,2026-04-05 16h16.19.092893 +0200,
,130,0,130,,,,None,,,None,,,,,,,,,,,130,0,130,0,1813.7450979999267,,,,,,,,,,,,,,,,clips/clip_weißt_26_nosub_1.mp4,audios/silence.mp3,visual,[7.351622299756855],,None,,,None,,,121,A,2026-04-05_16h16.17.595,exp_sofc_final,,2026.1.2,60.017777303184225,2026-04-05 16h16.19.092893 +0200,
,131,0,131,,,,None,,,None,,,,,,,,,,,131,0,131,0,1824.7621280001476,,,,,,,,,,,,,,,,clips/clip_herz_02_nosub_0.mp4,audios/silence.mp3,visual,[9.55032129958272],,None,,,None,,,121,A,2026-04-05_16h16.17.595,exp_sofc_final,,2026.1.2,60.017777303184225,2026-04-05 16h16.19.092893 +0200,
,132,0,132,,,,None,,,None,,,,,,,,,,,132,0,132,0,1838.0527536999434,,,,,,,,,,,,,,,,clips/clip_weißt_12_nosub_1.mp4,audios/clip_weißt_12_nosub_1.mp3,audiovisual,[9.003618100192398],,None,,,None,,,121,A,2026-04-05_16h16.17.595,exp_sofc_final,,2026.1.2,60.017777303184225,2026-04-05 16h16.19.092893 +0200,
,133,0,133,,,,None,,,None,,,,,,,,,,,133,0,133,0,1850.7542527997866,,,,,,,,,,,,,,,,clips/clip_lied_18_nosub_2.mp4,audios/silence.mp3,visual,"[5.45576209994033, 7.532499599736184]",,None,,,None,,,121,A,2026-04-05_16h16.17.595,exp_sofc_final,,2026.1.2,60.017777303184225,2026-04-05 16h16.19.092893 +0200,
,134,0,134,,,,None,,,None,,,,,,,,,,,134,0,134,0,1862.3195373998024,,,,,,,,,,,,,,,,clips/clip_hund_15_sub_1.mp4,audios/clip_hund_15_sub_1.mp3,audiovisual,"[4.922525300178677, 6.743803000077605]",,None,,,None,,,121,A,2026-04-05_16h16.17.595,exp_sofc_final,,2026.1.2,60.017777303184225,2026-04-05 16h16.19.092893 +0200,
,135,0,135,,,,None,,,None,,,,,,,,,,,135,0,135,0,1873.5977333001792,,,,,,,,,,,,,,,,clips/clip_weißt_19_sub_1.mp4,audios/clip_weißt_19_sub_1.mp3,audiovisual,[],,None,,,None,,,121,A,2026-04-05_16h16.17.595,exp_sofc_final,,2026.1.2,60.017777303184225,2026-04-05 16h16.19.092893 +0200,
,136,0,136,,,,None,,,None,,,,,,,,,,,136,0,136,0,1884.41411969997,,,,,,,,,,,,,,,,clips/clip_wurst_35_nosub_0.mp4,audios/clip_wurst_35_nosub_0.mp3,audiovisual,[],,None,,,None,,,121,A,2026-04-05_16h16.17.595,exp_sofc_final,,2026.1.2,60.017777303184225,2026-04-05 16h16.19.092893 +0200,
,137,0,137,,,,None,,,None,,,,,,,,,,,137,0,137,0,1894.6262285001576,,,,,,,,,,,,,,,,clips/clip_herz_13_sub_0.mp4,audios/clip_herz_13_sub_0.mp3,audiovisual,[7.876709499862045],,None,,,None,,,121,A,2026-04-05_16h16.17.595,exp_sofc_final,,2026.1.2,60.017777303184225,2026-04-05 16h16.19.092893 +0200,
,138,0,138,,,,None,,,None,,,,,,,,,,,138,0,138,0,1907.184018299915,,,,,,,,,,,,,,,,clips/clip_weißt_15_nosub_1.mp4,audios/silence.mp3,visual,"[3.217499299906194, 5.0014077997766435]",,None,,,None,,,121,A,2026-04-05_16h16.17.595,exp_sofc_final,,2026.1.2,60.017777303184225,2026-04-05 16h16.19.092893 +0200,
,139,0,139,,,,None,,,None,,,,,,,,,,,139,0,139,0,1918.6574086002074,,,,,,,,,,,,,,,,clips/clip_lied_17_sub_2.mp4,audios/clip_lied_17_sub_2.mp3,audiovisual,[8.23420810000971],,None,,,None,,,121,A,2026-04-05_16h16.17.595,exp_sofc_final,,2026.1.2,60.017777303184225,2026-04-05 16h16.19.092893 +0200,
,140,0,140,,,,None,,,None,,,,,,,,,,,140,0,140,0,1929.5430141999386,,,,,,,,,,,,,,,,clips/clip_claude_11_sub_0.mp4,audios/clip_claude_11_sub_0.mp3,audiovisual,[],,None,,,None,,,121,A,2026-04-05_16h16.17.595,exp_sofc_final,,2026.1.2,60.017777303184225,2026-04-05 16h16.19.092893 +0200,
,141,0,141,,,,None,,,None,,,,,,,,,,,141,0,141,0,1940.3583212997764,,,,,,,,,,,,,,,,clips/clip_hund_36_sub_2.mp4,audios/clip_hund_36_sub_2.mp3,audiovisual,"[2.666632500011474, 5.841830200050026]",,None,,,None,,,121,A,2026-04-05_16h16.17.595,exp_sofc_final,,2026.1.2,60.017777303184225,2026-04-05 16h16.19.092893 +0200,
,142,0,142,,,,None,,,None,,,,,,,,,,,142,0,142,0,1950.381376300007,,,,,,,,,,,,,,,,clips/clip_holo_06_nosub_2.mp4,audios/clip_holo_06_nosub_2.mp3,audiovisual,"[4.981146700214595, 8.974525300320238]",,None,,,None,,,121,A,2026-04-05_16h16.17.595,exp_sofc_final,,2026.1.2,60.017777303184225,2026-04-05 16h16.19.092893 +0200,
,143,0,143,,,,None,,,None,,,,,,,,,,,143,0,143,0,1960.9557851999998,,,,,,,,,,,,,,,,clips/clip_claude_23_sub_0.mp4,audios/clip_claude_23_sub_0.mp3,audiovisual,[],,None,,,None,,,121,A,2026-04-05_16h16.17.595,exp_sofc_final,,2026.1.2,60.017777303184225,2026-04-05 16h16.19.092893 +0200,
,144,0,144,,,,None,,,None,,,,,,,,,,,144,0,144,0,1973.9200308998115,,,,,,,,,,,,,,,,clips/clip_weißt_01_nosub_1.mp4,audios/clip_weißt_01_nosub_1.mp3,audiovisual,[5.817544899880886],,None,,,None,,,121,A,2026-04-05_16h16.17.595,exp_sofc_final,,2026.1.2,60.017777303184225,2026-04-05 16h16.19.092893 +0200,
,145,0,145,,,,None,,,None,,,,,,,,,,,145,0,145,0,1985.7505663000047,,,,,,,,,,,,,,,,clips/clip_hund_16_nosub_1.mp4,audios/silence.mp3,visual,[],,None,,,None,,,121,A,2026-04-05_16h16.17.595,exp_sofc_final,,2026.1.2,60.017777303184225,2026-04-05 16h16.19.092893 +0200,
,146,0,146,,,,None,,,None,,,,,,,,,,,146,0,146,0,1997.4142384999432,,,,,,,,,,,,,,,,clips/clip_wurst_10_nosub_2.mp4,audios/silence.mp3,visual,"[4.790571699850261, 7.360133799724281]",,None,,,None,,,121,A,2026-04-05_16h16.17.595,exp_sofc_final,,2026.1.2,60.017777303184225,2026-04-05 16h16.19.092893 +0200,
,147,0,147,,,,None,,,None,,,,,,,,,,,147,0,147,0,2007.0700130998157,,,,,,,,,,,,,,,,clips/clip_lied_15_nosub_2.mp4,audios/clip_lied_15_nosub_2.mp3,audiovisual,"[3.141617299988866, 6.916027899831533]",,None,,,None,,,121,A,2026-04-05_16h16.17.595,exp_sofc_final,,2026.1.2,60.017777303184225,2026-04-05 16h16.19.092893 +0200,
,148,0,148,,,,None,,,None,,,,,,,,,,,148,0,148,0,2015.2084774998948,,,,,,,,,,,,,,,,clips/clip_dampf_02_sub_1.mp4,audios/silence.mp3,visual,[4.932564300019294],,None,,,None,,,121,A,2026-04-05_16h16.17.595,exp_sofc_final,,2026.1.2,60.017777303184225,2026-04-05 16h16.19.092893 +0200,
,149,0,149,,,,,,,,,,,,,,,,,,149,0,149,0,2025.402209199965,,,,,,,,,,,,,,,,clips/clip_holo_03_sub_1.mp4,audios/silence.mp3,visual,,,,,,,,,,,,,,,,,
